    HOUR (UT)   FLARE FACTOR    SKY TESTER    SUN TESTER
   11.17555618   -1.00000000   -1.00000000   -1.00000000
   11.31861115  100.52799988    4.90999985    2.61999989
   11.32194424   93.81279755    4.90999985    2.61999989
   11.32527733   -1.00000000    4.90999985    2.61999989
   11.32833290   -1.00000000    4.90999985    2.64000010
   11.33555508   90.41349792    4.90999985    2.61999989
   11.33888817  103.56099701    4.90999985    2.61999989
   11.34194374   90.30020142    4.90999985    2.64000010
   11.34527779   87.39910126    4.90999985    2.61999989
   11.34861088   92.08850098    4.90999985    2.61999989
   11.35166740   86.40309906    4.90999985    2.61999989
   11.35500050   89.57489777    4.90999985    2.64000010
   11.36111164   89.57489777    4.90999985    2.64000010
   11.36527824   88.55419922    4.90999985    2.64000010
   11.36861134   86.51300049    4.90999985    2.64000010
   11.36916637   91.99870300    4.90999985    2.64000010
   11.37222195   80.99109650    4.90999985    2.64000010
   11.37555599   94.25389862    4.90999985    2.64000010
   11.37861156   90.15820313    4.90999985    2.64000010
   11.38194466   92.27120209    4.90999985    2.64000010
   11.38527775   90.14209747    4.90999985    2.64000010
   11.38833332   92.46420288    4.90999985    2.64000010
   11.39166641   83.60040283    4.90999985    2.64000010
   11.39472198   88.79250336    4.90999985    2.64000010
   11.39805508   96.75689697    4.90999985    2.66000009
   11.40138817   85.04389954    4.90999985    2.66000009
   11.40444374   81.41079712    4.90999985    2.64000010
   11.40777779   90.48600006    4.90999985    2.64000010
   11.41222191   90.48600006    4.90999985    2.64000010
   11.41638851   88.40760040    4.90999985    2.64000010
   11.41916656   83.15709686    4.90999985    2.64000010
   11.42027855   83.86840057    4.90999985    2.64000010
   11.42361164   93.35320282    4.90999985    2.66000009
   11.42666721   89.84459686    4.90999985    2.66000009
   11.43000031   88.93000031    4.90999985    2.66000009
   11.43333340   94.30269623    4.90999985    2.66000009
   11.43638897   92.99259949    4.90999985    2.66000009
   11.43972206   89.75679779    4.90999985    2.66000009
   11.44277763   94.76999664    4.90999985    2.66000009
   11.44611073   94.43569946    4.90999985    2.66000009
   11.44944477   99.78549957    4.90999985    2.66000009
   11.45249939   90.50730133    4.90999985    2.66000009
   11.45583344   91.39610291    4.90999985    2.66000009
   11.45916653   90.26329803    4.90999985    2.67000008
   11.46361065   90.26329803    4.90999985    2.67000008
   11.46777725   91.82879639    4.90999985    2.66000009
   11.46916580   85.91359711    4.90999985    2.67000008
   11.47138882   82.91940308    4.90999985    2.66000009
   11.47472191   81.75240326    4.90999985    2.66000009
   11.47777748   82.18750000    4.90999985    2.67000008
   11.48111057   87.24629974    4.90999985    2.67000008
   11.48444462   83.28209686    4.90999985    2.66000009
   11.48750019   82.74259949    4.90999985    2.67000008
   11.49083328   92.34230042    4.90999985    2.67000008
   11.49388885   92.75090027    4.90999985    2.67000008
   11.49722290   79.16529846    4.90999985    2.67000008
   11.50055599   84.24669647    4.90999985    2.67000008
   11.50361156   95.42099762    4.90999985    2.67000008
   11.50694466   90.63169861    4.90999985    2.67000008
   11.51027775   90.33899689    4.90999985    2.67000008
   11.51472187   90.33899689    4.90999985    2.67000008
   11.51888847   83.45010376    4.90999985    2.67000008
   11.51944447   81.20159912    4.90999985    2.67000008
   11.52250004   94.56629944    4.90999985    2.67000008
   11.52555561   86.21340179    4.90999985    2.67000008
   11.52888870   94.12229919    4.90999985    2.67000008
   11.53222179   87.84079742    4.90999985    2.67000008
   11.53527832   92.00830078    4.90999985    2.67000008
   11.53861141   87.53669739    4.90999985    2.67000008
   11.54194450   79.63760376    4.90999985    2.67000008
   11.54500008   83.83830261    4.90999985    2.67000008
   11.54833412   83.46810150    4.90999985    2.67000008
   11.55138874   86.24559784    4.90999985    2.69000006
   11.55472279   80.88279724    4.90999985    2.69000006
   11.55805588   89.35279846    4.90999985    2.67000008
   11.56111145   89.61679840    4.90999985    2.67000008
   11.56583309   89.61679840    4.90999985    2.69000006
   11.56999969   84.46369934    4.90999985    2.69000006
   11.57333374   82.80030060    4.90999985    2.67000008
   11.57638836   86.62480164    4.90999985    2.69000006
   11.57972240   80.36430359    4.90999985    2.69000006
   11.58305550   83.05359650    4.90999985    2.69000006
   11.58611107   81.32910156    4.90999985    2.69000006
   11.58944416   82.31919861    4.90999985    2.69000006
   11.59277725   81.67379761    4.90999985    2.69000006
   11.59583282   82.95760345    4.90999985    2.69000006
   11.59916592   81.45279694    4.90999985    2.69000006
   11.60222244   80.11380005    4.90999985    2.69000006
   11.60555553   81.96269989    4.90999985    2.69000006
   11.60888958   79.03029633    4.90999985    2.69000006
   11.61194515   80.12390137    4.90999985    2.69000006
   11.61694431   80.12390137    4.90999985    2.69000006
   11.62111092   79.86530304    4.90999985    2.69000006
   11.62444496   78.68750000    4.90999985    2.69000006
   11.62777805   82.15599823    4.90999985    2.69000006
   11.63083363   84.01069641    4.90999985    2.69000006
   11.63416672   82.27169800    4.90999985    2.69000006
   11.63749981   78.47859955    4.90999985    2.71000004
   11.64055538   80.69170380    4.90999985    2.71000004
   11.64388847   81.13710022    4.90999985    2.69000006
   11.64722252   78.74590302    4.90999985    2.69000006
   11.65027714   79.41719818    4.90999985    2.71000004
   11.65361118   80.61550140    4.90999985    2.71000004
   11.65666676   81.90029907    4.90999985    2.71000004
   11.65999985   82.29560089    4.90999985    2.71000004
   11.66333294   81.70110321    4.90999985    2.69000006
   11.66833401   81.70110321    4.90999985    2.71000004
   11.67250061   78.85520172    4.90999985    2.71000004
   11.67555618   76.90070343    4.90999985    2.71000004
   11.67888927   81.68460083    4.90999985    2.71000004
   11.68222237   79.22299957    4.90999985    2.71000004
   11.68527794   78.35569763    4.90999985    2.71000004
   11.68861103   86.36830139    4.90999985    2.71000004
   11.69166660   77.43260193    4.90999985    2.71000004
   11.69499969   85.97969818    4.90999985    2.71000004
   11.69833374   79.77839661    4.90999985    2.71000004
   11.70138836   83.77300262    4.90999985    2.71000004
   11.70472240   81.68430328    4.90999985    2.71000004
   11.70805550   82.07550049    4.90999985    2.71000004
   11.71111107   85.24759674    4.90999985    2.71000004
   11.71444416   80.84349823    4.90999985    2.73000002
   11.71944427   80.84349823    4.90999985    2.71000004
   11.72361088   80.26210022    4.90999985    2.71000004
   11.72666645   81.29029846    4.90999985    2.71000004
   11.72999954   87.34899902    4.90999985    2.71000004
   11.73333359   77.55580139    4.90999985    2.71000004
   11.73666668   85.85990143    4.90999985    2.73000002
   11.73972225   86.10710144    4.90999985    2.73000002
   11.74305534   76.50460052    4.90999985    2.71000004
   11.74611092   83.73059845    4.90999985    2.71000004
   11.74944496   92.23439789    4.90999985    2.73000002
   11.75277805   83.23310089    4.90999985    2.73000002
   11.75583363   83.15049744    4.90999985    2.73000002
   11.75916672   78.25959778    4.90999985    2.73000002
   11.76249981   76.03109741    4.90999985    2.73000002
   11.76555538   77.57119751    4.90999985    2.73000002
   11.77055550   77.57119751    4.90999985    2.73000002
   11.77472210   75.74490356    4.90999985    2.75000000
   11.77805519   81.06179810    4.90999985    2.73000002
   11.78111076   78.26049805    4.90999985    2.75000000
   11.78444481   77.98139954    4.90999985    2.73000002
   11.78777790   82.39299774    4.90999985    2.75000000
   11.79083347   77.69589996    4.90999985    2.73000002
   11.79416752   83.31300354    4.90999985    2.73000002
   11.79722309   80.45429993    4.90999985    2.73000002
   11.80055618   79.86840057    4.90999985    2.75000000
   11.80388927   88.38249969    4.90999985    2.75000000
   11.80694485   81.94170380    4.90999985    2.75000000
   11.81027794   79.59559631    4.90999985    2.75000000
   11.81361103   79.87500000    4.90999985    2.73000002
   11.81666660   75.14320374    4.90999985    2.73000002
   11.82166672   75.14320374    4.90999985    2.75000000
   11.82583332   75.78230286    4.90999985    2.73000002
   11.82916641   85.49629974    4.90999985    2.75000000
   11.83249950   79.35790253    4.90999985    2.75000000
   11.83555508   77.10189819    4.90999985    2.75000000
   11.83888817   78.89479828    4.90999985    2.75000000
   11.84222221   75.79979706    4.90999985    2.75000000
   11.84527779   77.29329681    4.90999985    2.75000000
   11.84861088   79.91369629    4.90999985    2.75000000
   11.85194492   78.58740234    4.90999985    2.75000000
   11.85500050   87.67690277    4.90999985    2.75000000
   11.85833359   78.08650208    4.90999985    2.75000000
   11.86138916   78.26760101    4.90999985    2.75000000
   11.86472225   81.69190216    4.90999985    2.75000000
   11.86805534   78.62210083    4.90999985    2.75000000
   11.87305546   78.62210083    4.90999985    2.75000000
   11.87722206   85.51879883    4.90999985    2.75000000
   11.88027763   80.97760010    4.90999985    2.75000000
   11.88361073   77.43550110    4.90999985    2.75000000
   11.88666630   77.45099640    4.90999985    2.75000000
   11.89000034   86.20790100    4.90999985    2.75000000
   11.89333344   80.49330139    4.90999985    2.76999998
   11.89638901   77.85410309    4.90999985    2.75000000
   11.89972210   78.73449707    4.90999985    2.76999998
   11.90305519   81.18209839    4.90999985    2.76999998
   11.90611076   79.31510162    4.90999985    2.75000000
   11.90944386   78.53610229    4.90999985    2.76999998
   11.91249943   83.60530090    4.90999985    2.76999998
   11.91583252   79.16100311    4.90999985    2.76999998
   11.91916656   74.98860168    4.90999985    2.76999998
   11.92416668   74.98860168    4.90999985    2.75000000
   11.92833328   74.47440338    4.90999985    2.76999998
   11.93138885   77.67130280    4.90999985    2.76999998
   11.93472195   78.68360138    4.90999985    2.76999998
   11.93805599   75.12249756    4.90999985    2.76999998
   11.94111156   78.97380066    4.90999985    2.76999998
   11.94444466   76.41400146    4.90999985    2.78999996
   11.94777775   77.67019653    4.90999985    2.76999998
   11.95083332   77.18240356    4.90999985    2.78999996
   11.95416641   76.36840057    4.90999985    2.76999998
   11.95749950   77.02729797    4.90999985    2.76999998
   11.96055508   76.69789886    4.90999985    2.76999998
   11.96388912   79.59290314    4.90999985    2.76999998
   11.96694374   78.52680206    4.90999985    2.76999998
   11.97027779   78.96990204    4.90999985    2.78999996
   11.97527695   78.96990204    4.90999985    2.76999998
   11.97944355   77.59760284    4.90999985    2.78999996
   11.98277760   79.54570007    4.90999985    2.78999996
   11.98583317   78.89530182    4.90999985    2.76999998
   11.98972225   80.35700226    4.90999985    2.76999998
   11.99305534   78.95619965    4.90999985    2.76999998
   11.99638939   88.14659882    4.90999985    2.76999998
   11.99944496   78.74900055    4.90999985    2.76999998
   12.00277805   77.44300079    4.90999985    2.76999998
   12.00583363   80.95110321    4.90999985    2.78999996
   12.00916672   83.22750092    4.90999985    2.78999996
   12.01249981   80.82080078    4.90999985    2.76999998
   12.01555538   78.69319916    4.90999985    2.76999998
   12.01888847   77.25460052    4.90999985    2.78999996
   12.02222157   81.80519867    4.90999985    2.78999996
   12.02750015   81.80519867    4.90999985    2.78999996
   12.03194427   80.32469940    4.90999985    2.78999996
   12.03527832   80.93160248    4.90999985    2.78999996
   12.03944492   75.64499664    4.90999985    2.78999996
   12.04444504   76.93150330    4.90999985    2.78999996
   12.04805565   73.85150146    4.90999985    2.78999996
   12.05166721   74.67960358    4.90999985    2.78999996
   12.05555534   77.64399719    4.90999985    2.78999996
   12.05888939   79.79820251    4.90999985    2.78999996
   12.06277752   73.73960114    4.90999985    2.78999996
   12.06666660   79.46690369    4.90999985    2.76999998
   12.07055569   74.93920135    4.90999985    2.78999996
   12.07416630   80.06430054    4.90999985    2.78999996
   12.07861137   80.06430054    4.90999985    2.78999996
   12.08277798   74.29329681    4.90999985    2.78999996
   12.08611107   74.85269928    4.90999985    2.78999996
   12.08916664   77.06120300    4.90999985    2.78999996
   12.09249973   75.79779816    4.90999985    2.78999996
   12.09583282   78.34670258    4.90999985    2.78999996
   12.09916592   76.38549805    4.90999985    2.78999996
   12.10222244   82.19139862    4.90999985    2.78999996
   12.10555553   76.07460022    4.90999985    2.80999994
   12.10888958   78.55449677    4.90999985    2.78999996
   12.11222267   75.95749664    4.90999985    2.78999996
   12.11555576   76.64360046    4.90999985    2.78999996
   12.11861134   74.42440033    4.90999985    2.80999994
   12.12194443   77.13269806    4.90999985    2.80999994
   12.12527752   75.50949860    4.90999985    2.78999996
   12.12972260   75.50949860    4.90999985    2.80999994
   12.13388920   75.92690277    4.90999985    2.78999996
   12.13722229   77.09629822    4.90999985    2.80999994
   12.14055538   75.75730133    4.90999985    2.78999996
   12.14388847   75.21289825    4.90999985    2.78999996
   12.14694405   79.11959839    4.90999985    2.80999994
   12.15027714   76.35209656    4.90999985    2.80999994
   12.15361118   77.04589844    4.90999985    2.80999994
   12.15694427   77.34549713    4.90999985    2.80999994
   12.16027737   76.12280273    4.90999985    2.80999994
   12.16416645   77.07189941    4.90999985    2.80999994
   12.16833401   76.26329803    4.90999985    2.80999994
   12.17222214   78.61000061    4.90999985    2.80999994
   12.17555618   76.17970276    4.90999985    2.80999994
   12.18111134   76.17970276    4.90999985    2.80999994
   12.18527794   80.36170197    4.90999985    2.80999994
   12.18861103   76.74150085    4.90999985    2.80999994
   12.19194412   77.26100159    4.90999985    2.82999992
   12.19527817   83.66459656    4.90999985    2.82999992
   12.19861126   77.50240326    4.90999985    2.80999994
   12.20222187   77.07389832    4.90999985    2.80999994
   12.20555496   76.33560181    4.90999985    2.80999994
   12.20888901   78.40429688    4.90999985    2.80999994
   12.21222210   73.08769989    4.90999985    2.80999994
   12.21527767   78.06250000    4.90999985    2.80999994
   12.21861076   73.88649750    4.90999985    2.82999992
   12.22194386   74.58730316    4.90999985    2.80999994
   12.22527695   75.79139709    4.90999985    2.80999994
   12.23222160   75.79139709    4.90999985    2.80999994
   12.23666668   72.89810181    4.90999985    2.80999994
   12.24000072   76.02850342    4.90999985    2.80999994
   12.24333382   77.41880035    4.90999985    2.82999992
   12.24694443   74.58390045    4.90999985    2.82999992
   12.25000000   80.57170105    4.90999985    2.80999994
   12.25333309   76.29419708    4.90999985    2.82999992
   12.25666714   77.73300171    4.90999985    2.82999992
   12.26027775   78.52999878    4.90999985    2.82999992
   12.26361084   79.34880066    4.90999985    2.80999994
   12.26694393   75.76540375    4.90999985    2.82999992
   12.27027798   80.24140167    4.90999985    2.82999992
   12.27361107   78.21219635    4.90999985    2.82999992
   12.27694416   80.17700195    4.90999985    2.80999994
   12.28333378   80.17700195    4.90999985    2.82999992
   12.28750038   77.52680206    4.90999985    2.82999992
   12.29083347   79.48359680    4.90999985    2.82999992
   12.29388905   78.65670013    4.90999985    2.82999992
   12.29750061   81.63659668    4.90999985    2.82999992
   12.30083370   77.86180115    4.90999985    2.82999992
   12.30416679   74.91010284    4.90999985    2.80999994
   12.30749989   77.16510010    4.90999985    2.82999992
   12.31055546   73.79149628    4.90999985    2.82999992
   12.31388950   75.77239990    4.90999985    2.82999992
   12.31722260   76.58630371    4.90999985    2.82999992
   12.32027817   75.42019653    4.90999985    2.82999992
   12.32361126   74.92079926    4.90999985    2.82999992
   12.32694435   78.40180206    4.90999985    2.82999992
   12.33027744   75.75630188    4.90999985    2.82999992
   12.35000038   64.70989990    4.90999985    2.82999992
   12.35138893   71.06449890    4.90999985    2.82999992
   12.35444450   74.10240173    4.90999985    2.82999992
   12.35777855   76.64409637    4.90999985    2.82999992
   12.36194515   74.94869995    4.90999985    2.84999990
   12.36527824   78.60060120    4.90999985    2.82999992
   12.36833382   76.81199646    4.90999985    2.82999992
   12.37166691   74.36810303    4.90999985    2.84999990
   12.37500000   72.58689880    4.90999985    2.82999992
   12.37805557   73.49299622    4.90999985    2.84999990
   12.38138866   72.87969971    4.90999985    2.84999990
   12.38555527   72.87969971    4.90999985    2.82999992
   12.38972187   77.79589844    4.90999985    2.82999992
   12.39305496   77.70439911    4.90999985    2.84999990
   12.39638901   76.65769958    4.90999985    2.84999990
   12.39972210   72.23229980    4.90999985    2.82999992
   12.40027714   76.93090057    4.90999985    2.82999992
   12.40361118   74.67939758    4.90999985    2.84999990
   12.40722179   76.63690186    4.90999985    2.84999990
   12.41055489   74.64669800    4.90999985    2.84999990
   12.41388893   71.57340240    4.90999985    2.84999990
   12.41694450   74.77259827    4.90999985    2.84999990
   12.42027855   76.03710175    4.90999985    2.84999990
   12.42361164   73.45760345    4.90999985    2.84999990
   12.42694473   74.96810150    4.90999985    2.82999992
   12.43027782   82.15219879    4.90999985    2.84999990
   12.43694496   82.15219879    4.90999985    2.82999992
   12.44111156   78.23880005    4.90999985    2.84999990
   12.44444466   75.56320190    4.90999985    2.84999990
   12.44777775   80.56269836    4.90999985    2.84999990
   12.44972229   74.66049957    4.90999985    2.84999990
   12.45166683   72.98829651    4.90999985    2.82999992
   12.45499992   73.51629639    4.90999985    2.84999990
   12.45805550   78.67859650    4.90999985    2.82999992
   12.46138859   77.07379913    4.90999985    2.84999990
   12.46472168   77.20510101    4.90999985    2.86999989
   12.46805477   76.86820221    4.90999985    2.86999989
   12.47138882   77.51760101    4.90999985    2.84999990
   12.47472191   74.38680267    4.90999985    2.84999990
   12.47805500   73.12329865    4.90999985    2.84999990
   12.48138809   73.95639801    4.90999985    2.84999990
   12.48861122   73.95639801    4.90999985    2.84999990
   12.49277782   76.57800293    4.90999985    2.84999990
   12.49666691   88.14089966    4.90999985    2.82999992
   12.49972248   74.22779846    4.90999985    2.86999989
   12.50027752   77.01219940    4.90999985    2.86999989
   12.50361156   74.70909882    4.90999985    2.86999989
   12.50666714   75.40959930    4.90999985    2.84999990
   12.51000023   76.49810028    4.90999985    2.86999989
   12.51333332   74.36820221    4.90999985    2.84999990
   12.51666641   75.33399963    4.90999985    2.84999990
   12.51999950   83.11599731    4.90999985    2.84999990
   12.52305508   75.81120300    4.90999985    2.84999990
   12.52638817   74.10949707    4.90999985    2.84999990
   12.52972221   75.36080170    4.90999985    2.86999989
   12.53277779   71.73889923    4.90999985    2.86999989
   12.54027843   71.73889923    4.90999985    2.86999989
   12.54555607   78.59609985    4.90999985    2.84999990
   12.54888916   81.67269897    4.90999985    2.86999989
   12.55000019   76.19879913    4.90999985    2.84999990
   12.55305576   75.58280182    4.90999985    2.84999990
   12.55749989   77.47389984    4.90999985    2.84999990
   12.56277752   74.09860229    4.90999985    2.84999990
   12.56777763   76.09950256    4.90999985    2.86999989
   12.57611084   74.76879883    4.90999985    2.86999989
   12.57972240   77.95970154    4.90999985    2.86999989
   12.58305550   75.59700012    4.90999985    2.86999989
   12.58638859   82.25279999    4.90999985    2.86999989
   12.59111118   82.25279999    4.90999985    2.86999989
   12.59555531   78.54170227    4.90999985    2.86999989
   12.59861088   73.39170074    4.90999985    2.86999989
   12.60000038   75.07649994    4.90999985    2.86999989
   12.60249996   72.51799774    4.90999985    2.86999989
   12.60583401   77.43029785    4.90999985    2.86999989
   12.60972214   78.24770355    4.90999985    2.86999989
   12.61305618   78.34919739    4.90999985    2.86999989
   12.61638927   76.22820282    4.90999985    2.84999990
   12.61972237   78.66220093    4.90999985    2.89000010
   12.62305546   74.07420349    4.90999985    2.86999989
   12.62638855   74.03980255    4.90999985    2.86999989
   12.62972260   75.38680267    4.90999985    2.86999989
   12.63277817   80.60260010    4.90999985    2.84999990
   12.63611126   83.29080200    4.90999985    2.86999989
   12.64222240   83.29080200    4.90999985    2.86999989
   12.64638901   75.15360260    4.90999985    2.86999989
   12.64972210   77.46080017    4.90999985    2.86999989
   12.65027714   81.05549622    4.90999985    2.86999989
   12.65444374   78.33480072    4.90999985    2.86999989
   12.65777779   77.00360107    4.90999985    2.86999989
   12.66111088   78.66169739    4.90999985    2.86999989
   12.66444397   74.78669739    4.90999985    2.86999989
   12.66777802   75.89420319    4.90999985    2.89000010
   12.67111111   73.19830322    4.90999985    2.86999989
   12.67416668   80.55319977    4.90999985    2.86999989
   12.67750072   82.13659668    4.90999985    2.86999989
   12.68083382   79.48670197    4.90999985    2.89000010
   12.68500042   77.83799744    4.90999985    2.86999989
   12.68861103   76.36750031    4.90999985    2.86999989
   12.69388866   76.36750031    4.90999985    2.86999989
   12.69833374   74.76429749    4.90999985    2.86999989
   12.70083332   75.86180115    4.90999985    2.86999989
   12.70249939   75.89109802    4.90999985    2.89000010
   12.70611095   77.91609955    4.90999985    2.86999989
   12.70972157   76.28959656    4.90999985    2.86999989
   12.71333313   75.28559875    4.90999985    2.86999989
   12.71749973   73.69599915    4.90999985    2.86999989
   12.72111034   73.89920044    4.90999985    2.86999989
   12.72444439   73.96410370    4.90999985    2.84999990
   12.72777748   77.15270233    4.90999985    2.86999989
   12.73083305   74.58519745    4.90999985    2.86999989
   12.73416710   76.90190125    4.90999985    2.89000010
   12.73750019   76.11380005    4.90999985    2.89000010
   12.74083328   80.57910156    4.90999985    2.89000010
   12.74499989   80.57910156    4.90999985    2.89000010
   12.74916649   74.05539703    4.90999985    2.86999989
   12.75083351   77.10459900    4.90999985    2.86999989
   12.75416660   75.33489990    4.90999985    2.89000010
   12.75722218   73.18399811    4.90999985    2.89000010
   12.76055527   74.52610016    4.90999985    2.89000010
   12.76472187   74.16439819    4.90999985    2.86999989
   12.76805496   73.87979889    4.90999985    2.86999989
   12.77138901   77.42890167    4.90999985    2.86999989
   12.77499962   75.93489838    4.90999985    2.89000010
   12.77861118   74.03019714    4.90999985    2.89000010
   12.78166676   74.72519684    4.90999985    2.86999989
   12.78527832   73.74109650    4.90999985    2.89000010
   12.78861141   73.93450165    4.90999985    2.89000010
   12.79277802   72.84780121    4.90999985    2.89000010
   12.79694462   72.84780121    4.90999985    2.89000010
   12.80138874   75.65119934    4.90999985    2.89000010
   12.80472279   76.24649811    4.90999985    2.89000010
   12.80805588   80.73629761    4.90999985    2.91000009
   12.81138897   77.53430176    4.90999985    2.89000010
   12.81444454   76.41850281    4.90999985    2.89000010
   12.81777763   78.17310333    4.90999985    2.89000010
   12.82111073   73.53890228    4.90999985    2.86999989
   12.82444477   76.72429657    4.90999985    2.89000010
   12.82777786   77.53569794    4.90999985    2.89000010
   12.83111095   72.25849915    4.90999985    2.86999989
   12.83472157   79.85610199    4.90999985    2.89000010
   12.83833313   78.29959869    4.90999985    2.89000010
   12.84166622   81.70420074    4.90999985    2.89000010
   12.84861088   81.70420074    4.90999985    2.91000009
   12.85333347   71.62079620    4.90999985    2.89000010
   12.85694504   75.50610352    4.90999985    2.89000010
   12.86055565   77.28939819    4.90999985    2.89000010
   12.86388969   75.73040009    4.90999985    2.89000010
   12.86722279   72.22769928    4.90999985    2.91000009
   12.87083340   76.36170197    4.90999985    2.89000010
   12.87416649   71.81030273    4.90999985    2.89000010
   12.87777805   75.78459930    4.90999985    2.91000009
   12.88111115   73.07669830    4.90999985    2.91000009
   12.88444424   74.05599976    4.90999985    2.91000009
   12.88805580   72.29060364    4.90999985    2.91000009
   12.89138889   75.25420380    4.90999985    2.89000010
   12.89472198   76.40370178    4.90999985    2.89000010
   12.90083313   76.40370178    4.90999985    2.89000010
   12.90499973   76.18029785    4.90999985    2.91000009
   12.90861034   72.51010132    4.90999985    2.89000010
   12.91194439   73.85569763    4.90999985    2.91000009
   12.91527748   71.70020294    4.90999985    2.91000009
   12.91861153   78.06199646    4.90999985    2.89000010
   12.92194462   75.90519714    4.90999985    2.89000010
   12.92500019   74.37079620    4.90999985    2.89000010
   12.92833328   79.95099640    4.90999985    2.89000010
   12.93222237   84.13529968    4.90999985    2.89000010
   12.93583298   81.29070282    4.90999985    2.91000009
   12.93972206   76.53679657    4.90999985    2.89000010
   12.94361115   71.73040009    4.90999985    2.89000010
   12.94750023   81.16670227    4.90999985    2.89000010
   12.95249939   81.16670227    4.90999985    2.91000009
   12.95722198   75.91500092    4.90999985    2.89000010
   12.96166611   77.10910034    4.90999985    2.89000010
   12.96527767   73.09369659    4.90999985    2.91000009
   12.96888828   79.15290070    4.90999985    2.93000007
   12.97277737   74.34380341    4.90999985    2.89000010
   12.97638798   75.81690216    4.90999985    2.89000010
   12.98027706   77.28050232    4.90999985    2.89000010
   12.98416710   72.68209839    4.90999985    2.91000009
   12.98777771   73.03250122    4.90999985    2.91000009
   12.99194431   74.40049744    4.90999985    2.91000009
   12.99555588   76.57559967    4.90999985    2.89000010
   12.99916649   76.00340271    4.90999985    2.89000010
   13.00416660   76.00340271    4.90999985    2.91000009
   13.00888920   73.94219971    4.90999985    2.91000009
   13.01222229   78.03669739    4.90999985    2.91000009
   13.01555538   81.92140198    4.90999985    2.91000009
   13.01888847   76.99120331    4.90999985    2.91000009
   13.02222157   76.78649902    4.90999985    2.91000009
   13.02583313   76.82820129    4.90999985    2.91000009
   13.02944374   73.64250183    4.90999985    2.89000010
   13.03305531   81.82710266    4.90999985    2.91000009
   13.03666687   71.95300293    4.90999985    2.89000010
   13.04027843   71.62239838    4.90999985    2.91000009
   13.04416752   70.79319763    4.90999985    2.91000009
   13.04777813   75.80079651    4.90999985    2.91000009
   13.05138874   79.06580353    4.90999985    2.91000009
   13.05666733   79.06580353    4.90999985    2.91000009
   13.06138897   84.42759705    4.90999985    2.91000009
   13.06500053   75.89409637    4.90999985    2.91000009
   13.06861115   75.68630219    4.90999985    2.91000009
   13.07222176   85.96499634    4.90999985    2.91000009
   13.07611084   75.32990265    4.90999985    2.91000009
   13.08027744   79.81159973    4.90999985    2.91000009
   13.08388901   87.15170288    4.90999985    2.93000007
   13.08749962   74.61910248    4.90999985    2.93000007
   13.09111118   79.56030273    4.90999985    2.91000009
   13.09444427   75.92949677    4.90999985    2.91000009
   13.09805489   73.62509918    4.90999985    2.93000007
   13.10166740   71.94719696    4.90999985    2.91000009
   13.10805607   71.94719696    4.90999985    2.91000009
   13.11305618   79.50879669    4.90999985    2.91000009
   13.11694431   76.06980133    4.90999985    2.91000009
   13.12083340   75.68229675    4.90999985    2.91000009
   13.12472248   80.52780151    4.90999985    2.93000007
   13.12861156   78.62159729    4.90999985    2.91000009
   13.13222218   74.70600128    4.90999985    2.91000009
   13.13611126   81.41419983    4.90999985    2.91000009
   13.14000034   76.07270050    4.90999985    2.93000007
   13.14388847   75.07710266    4.90999985    2.91000009
   13.14777756   74.85389709    4.90999985    2.93000007
   13.15166664   73.05239868    4.90999985    2.93000007
   13.15888882   73.05239868    4.90999985    2.91000009
   13.16361046   77.85800171    4.90999985    2.93000007
   13.16722298   71.24349976    4.90999985    2.93000007
   13.17111111   75.67500305    4.90999985    2.91000009
   13.17500019   73.82109833    4.90999985    2.91000009
   13.17888927   78.40209961    4.90999985    2.91000009
   13.18305588   72.26319885    4.90999985    2.93000007
   13.18694496   73.45230103    4.90999985    2.93000007
   13.19083309   73.52459717    4.90999985    2.91000009
   13.19416714   75.20570374    4.90999985    2.93000007
   13.19750023   74.25949860    4.90999985    2.93000007
   13.20083332   75.28790283    4.90999985    2.93000007
   13.20527744   74.90560150    4.90999985    2.91000009
   13.21000004   74.90560150    4.90999985    2.91000009
   13.21638870   74.22799683    4.90999985    2.93000007
   13.22194386   75.39669800    4.90999985    2.93000007
   13.22805500   73.71720123    4.90999985    2.93000007
   13.23361111   76.06780243    4.90999985    2.93000007
   13.23916721   73.38339996    4.90999985    2.93000007
   13.24305534   72.04219818    4.90999985    2.93000007
   13.24722290   71.62110138    4.90999985    2.91000009
   13.25055599   75.96579742    4.90999985    2.93000007
   13.25416660   73.82119751    4.90999985    2.93000007
   13.26138878   73.82119751    4.90999985    2.93000007
   13.26583290   77.61419678    4.90999985    2.93000007
   13.26916599   75.36499786    4.90999985    2.93000007
   13.27250004   76.36119843    4.90999985    2.93000007
   13.27555561   72.61660004    4.90999985    2.93000007
   13.27888870   76.20919800    4.90999985    2.93000007
   13.28222179   74.18849945    4.90999985    2.93000007
   13.28527832   73.62239838    4.90999985    2.93000007
   13.28861141   73.17109680    4.90999985    2.93000007
   13.29166698   73.15529633    4.90999985    2.93000007
   13.29500008   73.07039642    4.90999985    2.93000007
   13.29833412   73.75189972    4.90999985    2.93000007
   13.30138874   73.92099762    4.90999985    2.93000007
   13.30472279   71.99389648    4.90999985    2.93000007
   13.30805588   76.57399750    4.90999985    2.91000009
   13.31222248   76.57399750    4.90999985    2.93000007
   13.31638908   73.99610138    4.90999985    2.94000006
   13.31972218   72.24539948    4.90999985    2.94000006
   13.32277775   72.96279907    4.90999985    2.93000007
   13.32611084   72.94400024    4.90999985    2.93000007
   13.32944393   74.16840363    4.90999985    2.93000007
   13.33249950   73.76899719    4.90999985    2.93000007
   13.33583260   74.84999847    4.90999985    2.93000007
   13.33916664   73.85630035    4.90999985    2.93000007
   13.34222221   72.20359802    4.90999985    2.93000007
   13.34555531   74.78440094    4.90999985    2.93000007
   13.34861088   74.13870239    4.90999985    2.91000009
   13.37083340   74.13870239    4.90999985    2.94000006
   13.37500000   78.93129730    4.90999985    2.94000006
   13.37833309   77.93939972    4.90999985    2.93000007
   13.38166714   72.19120026    4.90999985    2.93000007
   13.38472176   75.86550140    4.90999985    2.94000006
   13.38805580   73.45040131    4.90999985    2.94000006
   13.39111137   75.55690002    4.90999985    2.93000007
   13.39444447   77.05460358    4.90999985    2.94000006
   13.39777756   75.00839996    4.90999985    2.94000006
   13.40083313   70.06140137    4.90999985    2.93000007
   13.40416622   74.10070038    4.90999985    2.94000006
   13.40749931   73.40869904    4.90999985    2.93000007
   13.41055489   74.10939789    4.90999985    2.93000007
   13.41388893   74.29219818    4.90999985    2.93000007
   13.41694450   73.84929657    4.90999985    2.93000007
   13.41833401   71.25240326    4.90999985    2.93000007
   13.42250061   71.25240326    4.90999985    2.94000006
   13.42666721   71.66089630    4.90999985    2.94000006
   13.43000031   73.00849915    4.90999985    2.93000007
   13.43305588   71.44580078    4.90999985    2.94000006
   13.43638897   74.70800018    4.90999985    2.94000006
   13.43972206   72.36959839    4.90999985    2.94000006
   13.44277763   71.23079681    4.90999985    2.94000006
   13.44611073   77.42539978    4.90999985    2.93000007
   13.44944477   74.92559814    4.90999985    2.93000007
   13.45249939   75.94170380    4.90999985    2.94000006
   13.45583344   71.90540314    4.90999985    2.94000006
   13.45888901   73.81490326    4.90999985    2.94000006
   13.46222210   75.97619629    4.90999985    2.93000007
   13.46555519   73.33740234    4.90999985    2.93000007
   13.46833324   74.49610138    4.90999985    2.94000006
   13.46916580   73.91249847    4.90999985    2.94000006
   13.47388840   73.91249847    4.90999985    2.93000007
   13.47777748   74.49169922    4.90999985    2.94000006
   13.48111057   72.90850067    4.90999985    2.93000007
   13.48444462   69.67810059    4.90999985    2.93000007
   13.48750019   71.46910095    4.90999985    2.93000007
   13.49083328   74.06770325    4.90999985    2.94000006
   13.49416733   72.17310333    4.90999985    2.94000006
   13.49722290   76.47139740    4.90999985    2.93000007
   13.50055599   71.92929840    4.90999985    2.94000006
   13.50388908   76.78869629    4.90999985    2.93000007
   13.50694466   69.46510315    4.90999985    2.93000007
   13.51027775   74.85739899    4.90999985    2.94000006
   13.51361084   74.14029694    4.90999985    2.93000007
   13.51666641   74.91989899    4.90999985    2.94000006
   13.51833344   78.81849670    4.90999985    2.94000006
   13.52027798   75.11779785    4.90999985    2.93000007
   13.52499962   75.11779785    4.90999985    2.94000006
   13.52916622   73.01640320    4.90999985    2.94000006
   13.53222179   74.22769928    4.90999985    2.94000006
   13.53555584   74.08550262    4.90999985    2.94000006
   13.53888893   70.18270111    4.90999985    2.94000006
   13.54194450   70.75599670    4.90999985    2.94000006
   13.54527855   73.80180359    4.90999985    2.94000006
   13.54833412   71.34400177    4.90999985    2.93000007
   13.55166721   72.75309753    4.90999985    2.94000006
   13.55500031   76.45439911    4.90999985    2.94000006
   13.55805588   74.33110046    4.90999985    2.94000006
   13.56138897   71.01709747    4.90999985    2.94000006
   13.56472206   74.27469635    4.90999985    2.93000007
   13.56777763   72.13159943    4.90999985    2.94000006
   13.56833363   78.16670227    4.90999985    2.94000006
   13.57138920   77.05950165    4.90999985    2.94000006
   13.57611084   77.05950165    4.90999985    2.94000006
   13.58027744   78.99289703    4.90999985    2.94000006
   13.58361053   74.95960236    4.90999985    2.96000004
   13.58666611   75.69979858    4.90999985    2.94000006
   13.59000015   77.15290070    4.90999985    2.94000006
   13.59305477   72.34670258    4.90999985    2.94000006
   13.59638882   72.08249664    4.90999985    2.94000006
   13.59972191   75.98120117    4.90999985    2.96000004
   13.60277843   75.28420258    4.90999985    2.94000006
   13.60611153   72.07150269    4.90999985    2.94000006
   13.60944462   74.74289703    4.90999985    2.94000006
   13.61250019   73.79460144    4.90999985    2.94000006
   13.61583328   75.10800171    4.90999985    2.94000006
   13.61833382   75.15540314    4.90999985    2.94000006
   13.61944485   75.83409882    4.90999985    2.93000007
   13.62277794   74.00949860    4.90999985    2.94000006
   13.62722206   74.00949860    4.90999985    2.94000006
   13.63138866   73.06479645    4.90999985    2.94000006
   13.63472176   71.74960327    4.90999985    2.96000004
   13.63777733   72.96340179    4.90999985    2.94000006
   13.64111137   73.77590179    4.90999985    2.94000006
   13.64444447   72.33630371    4.90999985    2.94000006
   13.64750004   72.63150024    4.90999985    2.94000006
   13.65083313   73.55439758    4.90999985    2.94000006
   13.65416622   73.00779724    4.90999985    2.94000006
   13.65722179   71.47989655    4.90999985    2.94000006
   13.66055489   79.57859802    4.90999985    2.94000006
   13.66361046   75.47979736    4.90999985    2.94000006
   13.66694450   77.61540222    4.90999985    2.94000006
   13.66861153   74.89779663    4.90999985    2.96000004
   13.67055607   73.57209778    4.90999985    2.94000006
   13.67388916   71.30200195    4.90999985    2.94000006
   13.67833328   71.30200195    4.90999985    2.94000006
   13.68249989   75.34459686    4.90999985    2.94000006
   13.68583298   75.01059723    4.90999985    2.98000002
   13.68916702   73.23049927    4.90999985    2.94000006
   13.69222260   73.98889923    4.90999985    2.94000006
   13.69555569   74.29250336    4.90999985    2.94000006
   13.69888878   74.14990234    4.90999985    2.94000006
   13.70194435   72.35759735    4.90999985    2.94000006
   13.70527744   77.09750366    4.90999985    2.94000006
   13.70833302   75.29599762    4.90999985    2.94000006
   13.71166611   73.69989777    4.90999985    2.94000006
   13.71500015   72.38770294    4.90999985    2.94000006
   13.71805477   76.58170319    4.90999985    2.94000006
   13.71861076   74.10810089    4.90999985    2.94000006
   13.72194386   74.98349762    4.90999985    2.94000006
   13.72527695   78.15209961    4.90999985    2.94000006
   13.72972202   78.15209961    4.90999985    2.94000006
   13.73388958   74.09500122    4.90999985    2.94000006
   13.73694515   70.90670013    4.90999985    2.94000006
   13.74027824   74.79879761    4.90999985    2.94000006
   13.74361134   77.93289948    4.90999985    2.94000006
   13.74666691   72.79779816    4.90999985    2.94000006
   13.75000000   70.82389832    4.90999985    2.94000006
   13.75305557   72.85540009    4.90999985    2.94000006
   13.75638866   77.56639862    4.90999985    2.94000006
   13.75972176   72.58640289    4.90999985    2.94000006
   13.76277733   72.07469940    4.90999985    2.94000006
   13.76611137   74.32589722    4.90999985    2.94000006
   13.76861095   75.13829803    4.90999985    2.94000006
   13.76972198   73.14129639    4.90999985    2.96000004
   13.77305508   75.68419647    4.90999985    2.94000006
   13.77611065   72.36260223    4.90999985    2.94000006
   13.78083324   72.36260223    4.90999985    2.96000004
   13.78500080   73.58910370    4.90999985    2.94000006
   13.78833389   73.30470276    4.90999985    2.96000004
   13.79138947   75.71829987    4.90999985    2.96000004
   13.79472256   71.89510345    4.90999985    2.94000006
   13.79777813   72.66770172    4.90999985    2.96000004
   13.80111122   73.83039856    4.90999985    2.96000004
   13.80444431   71.99320221    4.90999985    2.96000004
   13.80749989   72.63800049    4.90999985    2.96000004
   13.81083393   77.66580200    4.90999985    2.96000004
   13.81416702   72.61070251    4.90999985    2.94000006
   13.81722260   72.43560028    4.90999985    2.96000004
   13.81861115   73.23799896    4.90999985    2.94000006
   13.82083321   75.45850372    4.90999985    2.96000004
   13.82416630   74.25299835    4.90999985    2.96000004
   13.82722187   73.76249695    4.90999985    2.96000004
   13.83194447   73.76249695    4.90999985    2.96000004
   13.83611107   74.22219849    4.90999985    2.96000004
   13.83944416   71.65809631    4.90999985    2.94000006
   13.84249973   73.06890106    4.90999985    2.94000006
   13.84583282   75.19709778    4.90999985    2.96000004
   13.84916592   72.01719666    4.90999985    2.96000004
   13.85222244   73.10250092    4.90999985    2.94000006
   13.85555553   71.45539856    4.90999985    2.96000004
   13.85888958   69.85990143    4.90999985    2.96000004
   13.86194515   73.65019989    4.90999985    2.96000004
   13.86527824   74.59950256    4.90999985    2.96000004
   13.86833382   74.48079681    4.90999985    2.96000004
   13.86888885   73.85620117    4.90999985    2.96000004
   13.87222195   72.36329651    4.90999985    2.96000004
   13.87555599   71.40529633    4.90999985    2.96000004
   13.87861156   72.97450256    4.90999985    2.96000004
   13.88305569   72.97450256    4.90999985    2.96000004
   13.88722229   71.84619904    4.90999985    2.96000004
   13.89055538   74.98380280    4.90999985    2.96000004
   13.89388847   75.47989655    4.90999985    2.96000004
   13.89694405   71.44709778    4.90999985    2.94000006
   13.90027714   72.43319702    4.90999985    2.96000004
   13.90361118   70.63690186    4.90999985    2.96000004
   13.90666676   71.01059723    4.90999985    2.96000004
   13.90999985   72.88110352    4.90999985    2.96000004
   13.91305542   75.62310028    4.90999985    2.96000004
   13.91638851   72.49410248    4.90999985    2.96000004
   13.91888905   77.00630188    4.90999985    2.96000004
   13.92000008   75.84190369    4.90999985    2.96000004
   13.92333412   71.83799744    4.90999985    2.96000004
   13.92638874   71.58619690    4.90999985    2.96000004
   13.92972279   70.91649628    4.90999985    2.96000004
   13.93444443   70.91649628    4.90999985    2.98000002
   13.93861103   73.64279938    4.90999985    2.96000004
   13.94166660   71.71890259    4.90999985    2.96000004
   13.94499969   74.94390106    4.90999985    2.96000004
   13.94833374   71.37660217    4.90999985    2.96000004
   13.95138836   71.95279694    4.90999985    2.96000004
   13.95472240   71.00279999    4.90999985    2.96000004
   13.95777798   72.67859650    4.90999985    2.98000002
   13.96111107   74.26779938    4.90999985    2.98000002
   13.96444416   73.01319885    4.90999985    2.96000004
   13.96749973   70.52359772    4.90999985    2.96000004
   13.96888828   76.07559967    4.90999985    2.94000006
   13.97111034   76.51349640    4.90999985    2.96000004
   13.97444439   72.25669861    4.90999985    2.96000004
   13.97749996   74.24669647    4.90999985    2.96000004
   13.98083305   71.61100006    4.90999985    2.96000004
   13.98555565   71.61100006    4.90999985    2.96000004
   13.98972225   75.32720184    4.90999985    2.98000002
   13.99277782   72.76740265    4.90999985    2.98000002
   13.99611092   73.73989868    4.90999985    2.96000004
   13.99944496   72.42040253    4.90999985    2.96000004
   14.00249958   69.66979980    4.90999985    2.96000004
   14.00583363   71.69329834    4.90999985    2.96000004
   14.00916672   72.17430115    4.90999985    2.98000002
   14.01222229   73.42739868    4.90999985    2.96000004
   14.01555538   71.02159882    4.90999985    2.96000004
   14.01888847   71.26950073    4.90999985    2.98000002
   14.01916599   72.56179810    4.90999985    2.98000002
   14.02250004   75.71269989    4.90999985    2.96000004
   14.02583313   71.36940002    4.90999985    2.96000004
   14.02888870   74.11270142    4.90999985    2.98000002
   14.03222179   75.72660065    4.90999985    2.96000004
   14.03666687   75.72660065    4.90999985    2.96000004
   14.04083347   72.98619843    4.90999985    2.96000004
   14.04416752   74.68840027    4.90999985    2.98000002
   14.04722309   72.76920319    4.90999985    2.96000004
   14.05055618   73.90480042    4.90999985    2.96000004
   14.05388927   73.25389862    4.90999985    2.96000004
   14.05694485   74.08979797    4.90999985    2.96000004
   14.06027794   71.32869720    4.90999985    2.96000004
   14.06361103   72.90730286    4.90999985    2.96000004
   14.06666660   72.71389771    4.90999985    2.98000002
   14.06944466   73.49349976    4.90999985    2.98000002
   14.07027817   77.19730377    4.90999985    2.98000002
   14.07361126   73.16899872    4.90999985    2.96000004
   14.07694435   73.37470245    4.90999985    2.96000004
   14.07999992   69.99040222    4.90999985    2.98000002
   14.08333302   72.19689941    4.90999985    2.96000004
   14.08777714   72.19689941    4.90999985    2.96000004
   14.09194374   73.25589752    4.90999985    2.98000002
   14.09527779   72.33940125    4.90999985    2.96000004
   14.09861088   72.29889679    4.90999985    2.98000002
   14.10166740   72.38629913    4.90999985    2.98000002
   14.10500050   70.86879730    4.90999985    2.96000004
   14.10833359   73.40750122    4.90999985    2.96000004
   14.11138916   71.44819641    4.90999985    2.96000004
   14.11472225   72.18650055    4.90999985    2.96000004
   14.11777782   72.34049988    4.90999985    2.96000004
   14.11944485   71.53350067    4.90999985    2.98000002
   14.12138939   75.62139893    4.90999985    2.96000004
   14.12472248   70.65390015    4.90999985    2.98000002
   14.12805557   72.64720154    4.90999985    2.96000004
   14.13111115   71.02790070    4.90999985    2.96000004
   14.13444424   73.72309875    4.90999985    2.98000002
   14.13916683   73.72309875    4.90999985    2.96000004
   14.14333344   72.76599884    4.90999985    2.96000004
   14.14638901   73.15419769    4.90999985    2.96000004
   14.14972210   73.94760132    4.90999985    2.98000002
   14.15305519   73.42769623    4.90999985    2.98000002
   14.15611076   72.64800262    4.90999985    2.96000004
   14.15944386   72.03170013    4.90999985    2.98000002
   14.16249943   71.27950287    4.90999985    2.96000004
   14.16583252   73.51100159    4.90999985    2.98000002
   14.16916656   75.22699738    4.90999985    2.98000002
   14.16972256   73.27829742    4.90999985    2.98000002
   14.17277813   74.39330292    4.90999985    2.98000002
   14.17611122   74.54380035    4.90999985    2.98000002
   14.17944431   72.02660370    4.90999985    2.96000004
   14.18249989   71.66519928    4.90999985    2.98000002
   14.18583298   73.20320129    4.90999985    2.98000002
   14.19027805   73.20320129    4.90999985    2.98000002
   14.19444466   74.20729828    4.90999985    2.98000002
   14.19750023   70.28459930    4.90999985    2.96000004
   14.20083332   71.34500122    4.90999985    2.98000002
   14.20416641   73.00949860    4.90999985    2.98000002
   14.20722198   70.47429657    4.90999985    2.98000002
   14.21055508   68.63520050    4.90999985    2.98000002
   14.21388912   72.24549866    4.90999985    2.96000004
   14.21694374   73.76750183    4.90999985    2.96000004
   14.21972179   70.71009827    4.90999985    2.98000002
   14.22055531   71.84320068    4.90999985    2.98000002
   14.22388840   73.95500183    4.90999985    2.98000002
   14.22722149   72.80889893    4.90999985    2.98000002
   14.23027706   70.80940247    4.90999985    2.96000004
   14.23361111   71.77410126    4.90999985    2.98000002
   14.23666668   73.37519836    4.90999985    2.98000002
   14.24138927   73.37519836    4.90999985    2.98000002
   14.24555588   73.03880310    4.90999985    2.98000002
   14.24888897   71.65460205    4.90999985    2.98000002
   14.25194454   72.64859772    4.90999985    2.98000002
   14.25527763   74.36630249    4.90999985    2.98000002
   14.25861073   72.06929779    4.90999985    2.98000002
   14.26166630   74.26439667    4.90999985    2.98000002
   14.26500034   72.12049866    4.90999985    2.98000002
   14.26833344   74.19460297    4.90999985    3.00000000
   14.26972198   72.14009857    4.90999985    2.98000002
   14.27166653   72.01349640    4.90999985    2.98000002
   14.27499962   72.95749664    4.90999985    2.98000002
   14.27833271   74.71309662    4.90999985    2.98000002
   14.28138828   76.08820343    4.90999985    2.98000002
   14.28472233   76.32230377    4.90999985    2.98000002
   14.28805637   72.46939850    4.90999985    2.98000002
   14.29250050   72.46939850    4.90999985    2.98000002
   14.29666710   71.87370300    4.90999985    2.98000002
   14.30000019   72.27050018    4.90999985    2.98000002
   14.30333328   71.46510315    4.90999985    2.98000002
   14.30638885   75.80519867    4.90999985    2.98000002
   14.30972195   72.78140259    4.90999985    3.00000000
   14.31277752   74.51670074    4.90999985    2.96000004
   14.31611156   74.92610168    4.90999985    2.98000002
   14.31944466   71.90229797    4.90999985    2.98000002
   14.31999969   74.59300232    4.90999985    2.98000002
   14.32305527   75.21360016    4.90999985    2.96000004
   14.32638836   72.35990143    4.90999985    2.98000002
   14.32972240   71.85289764    4.90999985    2.98000002
   14.33277798   71.47820282    4.90999985    2.98000002
   14.33611107   73.75530243    4.90999985    2.98000002
   14.33916664   72.75749969    4.90999985    2.98000002
   14.34388828   72.75749969    4.90999985    2.98000002
   14.34805489   75.61150360    4.90999985    2.98000002
   14.35111141   77.30940247    4.90999985    2.98000002
   14.35444450   74.58110046    4.90999985    2.98000002
   14.35750008   74.38400269    4.90999985    2.96000004
   14.36083412   74.98249817    4.90999985    2.98000002
   14.36416721   73.68229675    4.90999985    2.98000002
   14.36722279   77.75869751    4.90999985    3.00000000
   14.38444424   74.56340027    4.90999985    2.98000002
   14.38694477   73.19349670    4.90999985    2.98000002
   14.39027786   75.18579865    4.90999985    2.98000002
   14.39527798   75.18579865    4.90999985    2.96000004
   14.39944458   72.48729706    4.90999985    2.98000002
   14.40249920   75.44319916    4.90999985    2.96000004
   14.40583324   72.49579620    4.90999985    2.98000002
   14.40888882   71.53829956    4.90999985    2.98000002
   14.41222191   72.23280334    4.90999985    2.98000002
   14.41555500   72.30290222    4.90999985    2.98000002
   14.41861153   71.68170166    4.90999985    2.98000002
   14.42194462   71.88790131    4.90999985    2.98000002
   14.42527771   73.80319977    4.90999985    2.98000002
   14.42833328   72.56710052    4.90999985    2.98000002
   14.43166733   73.43000031    4.90999985    2.98000002
   14.43416691   71.96160126    4.90999985    2.98000002
   14.43527794   72.09970093    4.90999985    3.00000000
   14.43861103   71.63150024    4.90999985    2.98000002
   14.44166660   71.95819855    4.90999985    2.98000002
   14.44638920   71.95819855    4.90999985    3.00000000
   14.45055580   72.66120148    4.90999985    2.98000002
   14.45361137   72.85970306    4.90999985    2.98000002
   14.45694447   72.61979675    4.90999985    2.98000002
   14.46027756   71.86239624    4.90999985    2.98000002
   14.46333313   71.02970123    4.90999985    2.98000002
   14.46666622   70.85240173    4.90999985    2.98000002
   14.46999931   74.39369965    4.90999985    2.98000002
   14.47305489   72.53119659    4.90999985    2.98000002
   14.47638798   73.15920258    4.90999985    2.96000004
   14.47944355   71.91329956    4.90999985    2.98000002
   14.48277760   70.60990143    4.90999985    2.98000002
   14.48416710   72.56189728    4.90999985    2.98000002
   14.48638916   72.02690125    4.90999985    2.98000002
   14.48972225   71.11329651    4.90999985    2.98000002
   14.49277782   73.89959717    4.90999985    2.98000002
   14.49750042   73.89959717    4.90999985    3.00000000
   14.50166702   71.32350159    4.90999985    3.00000000
   14.50500011   72.80269623    4.90999985    2.98000002
   14.50805569   71.46360016    4.90999985    3.00000000
   14.51138878   71.01439667    4.90999985    3.00000000
   14.51472187   70.23049927    4.90999985    2.98000002
   14.51777744   73.55020142    4.90999985    3.01999998
   14.52111053   73.02369690    4.90999985    2.98000002
   14.52444458   74.43720245    4.90999985    2.98000002
   14.52750015   73.57929993    4.90999985    2.98000002
   14.53083324   72.93260193    4.90999985    2.98000002
   14.53416729   71.60649872    4.90999985    2.98000002
   14.53444481   71.34919739    4.90999985    2.98000002
   14.53777790   68.99710083    4.90999985    2.98000002
   14.54111195   70.71900177    4.90999985    2.98000002
   14.54416752   72.29969788    4.90999985    3.00000000
   14.54861164   72.29969788    4.90999985    3.00000000
   14.55277824   70.88670349    4.90999985    3.00000000
   14.55611134   72.06970215    4.90999985    3.00000000
   14.55944443   73.03029633    4.90999985    3.01999998
   14.56250000   72.68350220    4.90999985    2.98000002
   14.56583309   73.59190369    4.90999985    3.00000000
   14.56888866   73.43000031    4.90999985    2.98000002
   14.57222176   71.80190277    4.90999985    3.00000000
   14.57555580   70.57209778    4.90999985    2.98000002
   14.57861137   71.64119720    4.90999985    2.98000002
   14.58194447   72.72850037    4.90999985    3.00000000
   14.58444405   76.36440277    4.90999985    2.98000002
   14.58555508   72.73429871    4.90999985    3.00000000
   14.58888817   70.23789978    4.90999985    3.01999998
   14.59194374   71.38860321    4.90999985    3.00000000
   14.59527779   68.48110199    4.90999985    3.00000000
   14.60000038   68.48110199    4.90999985    2.98000002
   14.60388947   72.54630280    4.90999985    2.98000002
   14.60722256   76.36499786    4.90999985    3.00000000
   14.61055565   75.71009827    4.90999985    3.00000000
   14.61361122   75.54640198    4.90999985    2.98000002
   14.61694431   74.72679901    4.90999985    2.98000002
   14.62027836   71.78050232    4.90999985    3.00000000
   14.62333393   73.25319672    4.90999985    3.00000000
   14.62666702   72.33589935    4.90999985    2.98000002
   14.62972260   74.34809875    4.90999985    3.00000000
   14.63305569   75.27010345    4.90999985    2.98000002
   14.63444424   72.29759979    4.90999985    3.00000000
   14.63666630   73.83769989    4.90999985    3.00000000
   14.64000034   74.76830292    4.90999985    2.98000002
   14.64305496   73.22070313    4.90999985    3.00000000
   14.64638901   71.20610046    4.90999985    2.98000002
   14.65111065   71.20610046    4.90999985    3.00000000
   14.65527725   71.96060181    4.90999985    3.00000000
   14.65833282   72.87799835    4.90999985    3.00000000
   14.66166592   70.25520325    4.90999985    2.98000002
   14.66499996   72.43199921    4.90999985    3.00000000
   14.66805553   72.55760193    4.90999985    3.00000000
   14.67138958   73.35330200    4.90999985    2.98000002
   14.67444515   71.68219757    4.90999985    2.98000002
   14.67777824   72.92279816    4.90999985    3.00000000
   14.68111134   70.92819977    4.90999985    3.00000000
   14.68416691   74.57009888    4.90999985    3.00000000
   14.68472195   74.10749817    4.90999985    3.00000000
   14.68805599   71.53170013    4.90999985    3.00000000
   14.69138908   71.18890381    4.90999985    3.00000000
   14.69444466   71.23850250    4.90999985    3.00000000
   14.69777775   71.53029633    4.90999985    2.98000002
   14.70222187   71.53029633    4.90999985    3.00000000
   14.70638847   73.75900269    4.90999985    3.00000000
   14.70972157   70.12680054    4.90999985    3.00000000
   14.71277714   71.77649689    4.90999985    2.98000002
   14.71611118   72.93849945    4.90999985    3.00000000
   14.71944427   70.78330231    4.90999985    2.98000002
   14.72249985   74.83869934    4.90999985    3.00000000
   14.72583294   72.03399658    4.90999985    2.98000002
   14.72888851   72.77269745    4.90999985    2.98000002
   14.73222160   74.72039795    4.90999985    2.98000002
   14.73500061   74.02390289    4.90999985    2.98000002
   14.73583317   70.57579803    4.90999985    2.98000002
   14.73916721   70.82659912    4.90999985    3.00000000
   14.74222279   72.41780090    4.90999985    3.00000000
   14.74555588   73.01229858    4.90999985    3.00000000
   14.74888897   73.94360352    4.90999985    3.00000000
   14.75333309   73.94360352    4.90999985    2.98000002
   14.75749969   71.56430054    4.90999985    2.98000002
   14.76083374   73.60250092    4.90999985    2.98000002
   14.76416683   74.88860321    4.90999985    3.00000000
   14.76722240   73.06069946    4.90999985    3.00000000
   14.77055550   70.01760101    4.90999985    2.98000002
   14.77361107   73.53330231    4.90999985    3.00000000
   14.77694416   72.03189850    4.90999985    3.00000000
   14.78027725   72.04820251    4.90999985    3.00000000
   14.78333378   70.80380249    4.90999985    3.00000000
   14.78500080   70.62719727    4.90999985    3.00000000
   14.78694534   72.26940155    4.90999985    3.00000000
   14.79027843   73.74939728    4.90999985    3.00000000
   14.79361153   75.39679718    4.90999985    3.00000000
   14.79666710   72.19480133    4.90999985    3.00000000
   14.80000019   71.93170166    4.90999985    2.98000002
   14.80472279   71.93170166    4.90999985    3.00000000
   14.80861092   72.64320374    4.90999985    2.98000002
   14.81194496   75.06310272    4.90999985    3.00000000
   14.81527805   69.74019623    4.90999985    3.00000000
   14.81833363   71.40380096    4.90999985    3.00000000
   14.82166672   71.73269653    4.90999985    3.00000000
   14.82472229   68.26820374    4.90999985    3.00000000
   14.82805538   73.72859955    4.90999985    3.00000000
   14.83138847   70.54979706    4.90999985    3.00000000
   14.83444405   70.37349701    4.90999985    3.00000000
   14.83500004   72.81009674    4.90999985    3.00000000
   14.83833313   70.59600067    4.90999985    3.00000000
   14.84166622   73.43930054    4.90999985    3.00000000
   14.84472179   71.96880341    4.90999985    2.98000002
   14.84805489   71.71769714    4.90999985    2.98000002
   14.85111141   73.08350372    4.90999985    3.00000000
   14.85583401   73.08350372    4.90999985    3.00000000
   14.86000061   71.86029816    4.90999985    3.00000000
   14.86305618   70.75070190    4.90999985    3.00000000
   14.86638927   72.75659943    4.90999985    3.00000000
   14.86972237   76.46540070    4.90999985    2.98000002
   14.87277794   70.49690247    4.90999985    3.00000000
   14.87611103   74.01619720    4.90999985    3.00000000
   14.99583340   -1.00000000   -1.00000000   -1.00000000
   15.09277725   -1.00000000   -1.00000000   -1.00000000
   15.19388866   -1.00000000   -1.00000000   -1.00000000
   15.45972157   61.69760132    4.90999985    3.00000000
   15.46305561   78.46289825    4.90999985    3.00000000
   15.46611118   73.08879852    4.90999985    3.00000000
   15.46944427   73.64499664    4.90999985    3.00000000
   15.47277737   69.85320282    4.90999985    3.00000000
   15.47583294   71.30269623    4.90999985    3.01999998
   15.47916603   69.55599976    4.90999985    3.00000000
   15.48249912   74.04679871    4.90999985    3.00000000
   15.48833370   74.04679871    4.90999985    3.01999998
   15.49250031   73.04090118    4.90999985    3.00000000
   15.49583340   71.06369781    4.90999985    3.01999998
   15.49888897   73.35870361    4.90999985    3.01999998
   15.50222206   72.08100128    4.90999985    3.00000000
   15.50527763   72.60359955    4.90999985    3.00000000
   15.50861073   70.18170166    4.90999985    3.00000000
   15.50972176   72.25340271    4.90999985    3.00000000
   15.51222229   68.59709930    4.90999985    3.00000000
   15.51527786   73.99310303    4.90999985    3.00000000
   15.51861095   70.44779968    4.90999985    3.00000000
   15.52194405   74.98390198    4.90999985    2.98000002
   15.52499962   73.15390015    4.90999985    3.00000000
   15.52833271   72.15139771    4.90999985    3.00000000
   15.53166676   73.36039734    4.90999985    3.00000000
   15.53472233   72.56220245    4.90999985    3.00000000
   15.53944492   72.56220245    4.90999985    3.00000000
   15.54361153   71.57170105    4.90999985    3.00000000
   15.54694462   72.62010193    4.90999985    3.00000000
   15.55000019   74.26450348    4.90999985    3.01999998
   15.55333328   74.96369934    4.90999985    3.00000000
   15.55666733   73.08899689    4.90999985    3.00000000
   15.55972195   72.38569641    4.90999985    3.00000000
   15.56027794   73.48110199    4.90999985    3.01999998
   15.56333351   74.76049805    4.90999985    3.00000000
   15.56666660   74.16290283    4.90999985    3.01999998
   15.56999969   70.89350128    4.90999985    3.00000000
   15.57305527   71.09999847    4.90999985    3.00000000
   15.57638836   72.34729767    4.90999985    3.01999998
   15.57972240   71.33049774    4.90999985    3.00000000
   15.58277798   70.11109924    4.90999985    3.01999998
   15.58611107   67.95819855    4.90999985    3.00000000
   15.59083271   67.95819855    4.90999985    3.00000000
   15.59472179   70.74700165    4.90999985    3.01999998
   15.59805489   70.73349762    4.90999985    3.00000000
   15.60138893   71.09089661    4.90999985    3.01999998
   15.60444450   72.26560211    4.90999985    3.00000000
   15.60777855   72.59970093    4.90999985    3.01999998
   15.60972214   76.01750183    4.90999985    3.00000000
   15.61138916   74.06109619    4.90999985    3.01999998
   15.61444473   72.74890137    4.90999985    3.00000000
   15.61777782   73.59130096    4.90999985    3.00000000
   15.62111092   72.98629761    4.90999985    3.00000000
   15.62416649   70.68689728    4.90999985    3.00000000
   15.62750053   72.11660004    4.90999985    3.00000000
   15.63083363   72.23999786    4.90999985    3.01999998
   15.63388920   70.71829987    4.90999985    3.00000000
   15.63722229   68.86699677    4.90999985    3.00000000
   15.64194393   68.86699677    4.90999985    3.00000000
   15.64611053   70.48570251    4.90999985    3.00000000
   15.64916611   71.32180023    4.90999985    3.00000000
   15.65249920   73.26499939    4.90999985    3.01999998
   15.65583324   68.19039917    4.90999985    3.01999998
   15.65888882   69.23120117    4.90999985    3.00000000
   15.65972137   70.74729919    4.90999985    3.00000000
   15.66249943   73.22100067    4.90999985    3.01999998
   15.66583252   72.46779633    4.90999985    3.01999998
   15.66888905   71.53450012    4.90999985    3.00000000
   15.67222214   69.73249817    4.90999985    3.00000000
   15.67527771   68.93920135    4.90999985    3.00000000
   15.67861176   73.60739899    4.90999985    3.00000000
   15.68194485   70.79219818    4.90999985    3.00000000
   15.68500042   69.98570251    4.90999985    3.00000000
   15.68833351   71.43720245    4.90999985    3.00000000
   15.69305515   71.43720245    4.90999985    3.00000000
   15.69722271   72.49079895    4.90999985    3.00000000
   15.70055580   73.37850189    4.90999985    3.01999998
   15.70361137   72.14640045    4.90999985    3.01999998
   15.70694447   73.57050323    4.90999985    3.00000000
   15.70972157   73.32360077    4.90999985    3.00000000
   15.71055508   70.89649963    4.90999985    3.00000000
   15.71388912   72.83689880    4.90999985    3.00000000
   15.71694374   74.76820374    4.90999985    3.00000000
   15.72027779   73.43890381    4.90999985    3.00000000
   15.72333336   73.21350098    4.90999985    3.00000000
   15.72666645   72.80799866    4.90999985    3.00000000
   15.72999954   70.40390015    4.90999985    3.00000000
   15.73305511   72.01149750    4.90999985    3.01999998
   15.73638916   71.41490173    4.90999985    3.00000000
   15.73972225   72.03150177    4.90999985    3.01999998
   15.74416733   72.03150177    4.90999985    3.00000000
   15.74833393   74.95429993    4.90999985    3.01999998
   15.75166702   72.94989777    4.90999985    3.00000000
   15.75472260   71.29190063    4.90999985    3.00000000
   15.75805569   73.35230255    4.90999985    3.01999998
   15.75972176   72.29949951    4.90999985    3.00000000
   15.76166630   71.70259857    4.90999985    3.00000000
   15.76500034   72.77069855    4.90999985    3.00000000
   15.76805496   71.82630157    4.90999985    3.01999998
   15.77138901   72.85269928    4.90999985    3.01999998
   15.77472210   71.43060303    4.90999985    3.01999998
   15.77777767   69.27799988    4.90999985    3.01999998
   15.78111076   69.73480225    4.90999985    3.00000000
   15.78416729   68.36009979    4.90999985    3.01999998
   15.78750038   73.02359772    4.90999985    3.00000000
   15.79083347   68.09100342    4.90999985    3.00000000
   15.79555607   68.09100342    4.90999985    3.00000000
   15.79944515   72.94090271    4.90999985    3.01999998
   15.80277824   70.71019745    4.90999985    3.00000000
   15.80611134   68.88279724    4.90999985    3.01999998
   15.80944443   69.75779724    4.90999985    3.01999998
   15.80972195   69.29270172    4.90999985    3.01999998
   15.81277752   69.99800110    4.90999985    3.01999998
   15.81611156   67.78489685    4.90999985    3.00000000
   15.81916618   71.76349640    4.90999985    3.00000000
   15.82250023   73.46540070    4.90999985    3.00000000
   15.82583332   70.73760223    4.90999985    3.00000000
   15.82888889   73.08480072    4.90999985    3.00000000
   15.83222198   71.61530304    4.90999985    3.00000000
   15.83555508   70.85230255    4.90999985    3.01999998
   15.83861065   73.37400055    4.90999985    3.00000000
   15.84194374   76.04620361    4.90999985    3.01999998
   15.84666634   76.04620361    4.90999985    3.01999998
   15.85083389   68.99490356    4.90999985    3.00000000
   15.85388947   70.12010193    4.90999985    3.00000000
   15.85722256   70.36100006    4.90999985    3.00000000
   15.86000061   70.27400208    4.90999985    3.00000000
   15.86083412   71.22799683    4.90999985    3.00000000
   15.86416721   72.45410156    4.90999985    3.01999998
   15.86722279   70.31300354    4.90999985    3.01999998
   15.87055588   70.24410248    4.90999985    3.00000000
   15.87388897   71.42030334    4.90999985    3.01999998
   15.87694454   71.19699860    4.90999985    3.01999998
   15.88027763   71.18080139    4.90999985    3.00000000
   15.88361073   69.59079742    4.90999985    3.01999998
   15.88666630   71.43039703    4.90999985    3.00000000
   15.89000034   69.96119690    4.90999985    3.00000000
   15.89305496   70.74050140    4.90999985    3.00000000
   15.89777756   70.74050140    4.90999985    3.00000000
   15.90194416   70.57710266    4.90999985    3.00000000
   15.90527725   70.07589722    4.90999985    3.00000000
   15.90833282   72.93139648    4.90999985    3.00000000
   15.90999985   70.02729797    4.90999985    3.01999998
   15.91194439   73.32450104    4.90999985    3.00000000
   15.91527748   70.41719818    4.90999985    3.01999998
   15.91833401   70.85890198    4.90999985    3.00000000
   15.92166710   71.67050171    4.90999985    3.00000000
   15.92500019   69.81159973    4.90999985    3.00000000
   15.92805576   74.16940308    4.90999985    3.00000000
   15.93138885   72.21340179    4.90999985    3.00000000
   15.93472195   70.65599823    4.90999985    3.00000000
   15.93777752   73.62270355    4.90999985    3.00000000
   15.94111156   71.81359863    4.90999985    3.00000000
   15.94416714   74.27940369    4.90999985    3.01999998
   15.94888878   74.27940369    4.90999985    3.00000000
   15.95305538   71.90509796    4.90999985    3.00000000
   15.95638847   72.25509644    4.90999985    3.00000000
   15.95944405   72.05110168    4.90999985    3.00000000
   15.96000004   73.02320099    4.90999985    3.00000000
   15.96305561   70.14289856    4.90999985    3.00000000
   15.96638870   72.41419983    4.90999985    3.01999998
   15.96944427   73.21219635    4.90999985    3.01999998
   15.97277737   71.17919922    4.90999985    3.00000000
   15.97611046   72.54669952    4.90999985    3.00000000
   15.97916603   72.97450256    4.90999985    3.01999998
   15.98249912   72.64769745    4.90999985    3.01999998
   15.98583317   72.37120056    4.90999985    3.00000000
   15.98888874   69.37480164    4.90999985    3.00000000
   15.99222279   73.06849670    4.90999985    3.00000000
   15.99527836   70.73210144    4.90999985    3.00000000
   16.00027847   70.73210144    4.90999985    3.00000000
   16.00416756   69.03279877    4.90999985    3.00000000
   16.00749969   71.86160278    4.90999985    3.00000000
   16.01000023   72.35579681    4.90999985    3.01999998
   16.01111031   71.97630310    4.90999985    3.01999998
   16.01444435   70.29149628    4.90999985    3.00000000
   16.01749992   69.82900238    4.90999985    3.01999998
   16.02083397   73.76470184    4.90999985    3.00000000
   16.02416611   75.48239899    4.90999985    3.00000000
   16.02722168   70.29319763    4.90999985    3.00000000
   16.03055573   74.32260132    4.90999985    3.01999998
   16.03361130   68.07720184    4.90999985    2.98000002
   16.03694344   69.91339874    4.90999985    3.00000000
   16.04027748   70.94609833    4.90999985    3.00000000
   16.04333305   70.74539948    4.90999985    3.01999998
   16.04666710   73.06960297    4.90999985    3.00000000
   16.05138779   73.06960297    4.90999985    3.01999998
   16.05555534   71.71109772    4.90999985    3.00000000
   16.05861092   73.26650238    4.90999985    3.00000000
   16.06027794   73.85500336    4.90999985    3.00000000
   16.06222153   71.90360260    4.90999985    3.00000000
   16.06555557   70.57039642    4.90999985    3.00000000
   16.06861115   73.30069733    4.90999985    3.01999998
   16.07194519   70.96430206    4.90999985    3.00000000
   16.07527924   70.89119720    4.90999985    2.94000006
   16.07833481   72.42030334    4.90999985    2.94000006
   16.08166695   73.49210358    4.90999985    3.00000000
   16.08500099   70.79049683    4.90999985    2.98000002
   16.08805656   77.50740051    4.90999985    3.00000000
   16.09138870   71.80650330    4.90999985    2.94000006
   16.09444427   70.57620239    4.90999985    3.00000000
   16.09777832   69.60639954    4.90999985    3.00000000
   16.10250092   69.60639954    4.90999985    3.00000000
   16.10666656   75.43219757    4.90999985    3.00000000
   16.11000061   72.28730011    4.90999985    3.00000000
   16.11027908   71.59230042    4.90999985    2.98000002
   16.11361122   76.50710297    4.90999985    2.96000004
   16.11694527   74.55609894    4.90999985    2.98000002
   16.12000084   73.09799957    4.90999985    2.98000002
   16.12333298   73.33070374    4.90999985    3.01999998
   16.12666702   71.25810242    4.90999985    3.00000000
   16.12972260   69.80380249    4.90999985    3.00000000
   16.13305473   73.89430237    4.90999985    2.98000002
   16.13638878   72.29479980    4.90999985    2.91000009
   16.13944435   70.17810059    4.90999985    3.00000000
   16.14277840   71.47589874    4.90999985    2.98000002
   16.14583397   74.44419861    4.90999985    3.00000000
   16.14916611   72.00299835    4.90999985    3.00000000
   16.15361023   72.00299835    4.90999985    2.94000006
   16.15777779   69.14830017    4.90999985    3.01999998
   16.16055489   71.71189880    4.90999985    2.98000002
   16.16138840   71.03379822    4.90999985    3.00000000
   16.16472244   71.86889648    4.90999985    3.00000000
   16.16777802   72.21559906    4.90999985    3.01999998
   16.17111015   74.67259979    4.90999985    3.00000000
   16.17444420   73.35459900    4.90999985    3.00000000
   16.17749977   69.73870087    4.90999985    3.00000000
   16.18083191   70.88379669    4.90999985    3.00000000
   16.18416595   73.46939850    4.90999985    3.00000000
   16.18722153   71.78260040    4.90999985    3.01999998
   16.19055557   70.28939819    4.90999985    3.01999998
   16.19361115   69.07450104    4.90999985    3.01999998
   16.19694328   70.28320313    4.90999985    3.01999998
   16.20027924   74.35060120    4.90999985    3.00000000
   16.20472336   74.35060120    4.90999985    3.00000000
   16.20888901   72.57119751    4.90999985    3.00000000
   16.21055603   73.49819946    4.90999985    3.00000000
   16.21250153   69.48799896    4.90999985    3.00000000
   16.21583366   71.58789825    4.90999985    3.00000000
   16.21888924   70.89739990    4.90999985    3.01999998
   16.22222328   71.06780243    4.90999985    3.01999998
   16.22555542   71.99169922    4.90999985    3.01999998
   16.22861099   73.95629883    4.90999985    3.00000000
   16.23194504   70.74720001    4.90999985    3.00000000
   16.23527718   71.36000061    4.90999985    3.00000000
   16.23833275   70.02269745    4.90999985    3.01999998
   16.24166679   72.23609924    4.90999985    2.98000002
   16.24472237   69.91660309    4.90999985    3.00000000
   16.24805641   69.51529694    4.90999985    3.00000000
   16.25138855   70.77829742    4.90999985    3.01999998
   16.25611115   70.77829742    4.90999985    3.01999998
   16.26027870   74.11070251    4.90999985    3.00000000
   16.26055527   73.12110138    4.90999985    3.00000000
   16.26388931   75.16249847    4.90999985    3.00000000
   16.26722145   71.90019989    4.90999985    3.00000000
   16.27027702   72.15959930    4.90999985    3.00000000
   16.27361107   72.50440216    4.90999985    3.00000000
   16.27694511   72.00800323    4.90999985    3.00000000
   16.28000069   75.70410156    4.90999985    3.01999998
   16.28333282   74.78980255    4.90999985    3.00000000
   16.28666687   74.17639923    4.90999985    3.00000000
   16.28972244   74.57550049    4.90999985    3.01999998
   16.29305458   73.60820007    4.90999985    3.00000000
   16.29611015   73.38400269    4.90999985    3.00000000
   16.29944420   70.34700012    4.90999985    3.00000000
   16.30277634   71.22399902    4.90999985    3.00000000
   16.30722237   71.22399902    4.90999985    3.00000000
   16.31138802   71.41490173    4.90999985    3.00000000
   16.31444359   73.34839630    4.90999985    3.00000000
   16.31777954   74.03389740    4.90999985    3.00000000
   16.32111168   72.01629639    4.90999985    3.00000000
   16.32416725   74.60140228    4.90999985    3.00000000
   16.32750130   76.33110046    4.90999985    3.01999998
   16.33083344   73.09369659    4.90999985    3.01999998
   16.33388901   73.01740265    4.90999985    3.00000000
   16.33722305   71.92240143    4.90999985    3.00000000
   16.34027863   72.20950317    4.90999985    3.00000000
   16.34361267   71.53919983    4.90999985    3.00000000
   16.34694481   70.81620026    4.90999985    3.00000000
   16.35000038   71.06700134    4.90999985    3.00000000
   16.35333443   73.54309845    4.90999985    3.00000000
   16.35833359   73.54309845    4.90999985    3.00000000
   16.36250114   70.93379974    4.90999985    3.00000000
   16.36583328   74.73200226    4.90999985    3.01999998
   16.36888885   71.01580048    4.90999985    3.00000000
   16.37222290   69.77359772    4.90999985    3.01999998
   16.37555504   70.91470337    4.90999985    3.01999998
   16.37861061   74.79599762    4.90999985    3.00000000
   16.38194466   73.83180237    4.90999985    3.00000000
   16.38500023   71.37670135    4.90999985    3.00000000
   16.38833237   71.43589783    4.90999985    3.00000000
   16.39166641   73.65239716    4.90999985    2.98000002
   16.39472198   75.89289856    4.90999985    3.01999998
   16.39805603   71.64720154    4.90999985    3.01999998
   16.40138817   72.03530121    4.90999985    3.00000000
   16.40444374   69.64129639    4.90999985    3.00000000
   16.40944481   69.64129639    4.90999985    3.00000000
   16.41361046   71.81780243    4.90999985    3.00000000
   16.41694450   72.00440216    4.90999985    3.01999998
   16.42027664   70.90190125    4.90999985    3.00000000
   16.42333221   70.31700134    4.90999985    3.00000000
   16.42666626   71.90779877    4.90999985    3.01999998
   16.42972183   72.08020020    4.90999985    3.01999998
   16.43305397   69.47180176    4.90999985    3.01999998
   16.43638802   74.28060150    4.90999985    3.01999998
   16.43944359   70.91950226    4.90999985    3.00000000
   16.44277763   70.14360046    4.90999985    3.01999998
   16.44610977   71.42369843    4.90999985    3.00000000
   16.44916534   70.10749817    4.90999985    3.00000000
   16.45250130   70.27390289    4.90999985    3.00000000
   16.45555687   71.26480103    4.90999985    3.00000000
   16.47722244   70.72129822    4.90999985    3.00000000
   16.47750092   71.69999695    4.90999985    3.00000000
   16.48083305   71.85949707    4.90999985    3.00000000
   16.48416710   71.99790192    4.90999985    3.00000000
   16.48722267   71.06710052    4.90999985    3.00000000
   16.49055672   73.39669800    4.90999985    3.00000000
   16.49388885   71.00189972    4.90999985    3.00000000
   16.49694443   71.72010040    4.90999985    3.01999998
   16.50027847   68.59310150    4.90999985    3.00000000
   16.50361061   74.42250061    4.90999985    3.01999998
   16.50666618   73.18080139    4.90999985    3.01999998
   16.51194382   73.18080139    4.90999985    3.00000000
   16.51611137   69.48619843    4.90999985    3.00000000
   16.51944351   69.82369995    4.90999985    3.01999998
   16.52277756   70.07839966    4.90999985    3.00000000
   16.52583313   72.58209991    4.90999985    3.01999998
   16.52694511   72.11699677    4.90999985    3.01999998
   16.52944374   72.56479645    4.90999985    3.01999998
   16.53277779   74.42849731    4.90999985    3.01999998
   16.53583336   74.39140320    4.90999985    3.01999998
   16.53916550   72.31649780    4.90999985    3.01999998
   16.54249954   69.82759857    4.90999985    3.00000000
   16.54555511   69.86810303    4.90999985    3.00000000
   16.54888916   70.37999725    4.90999985    3.00000000
   16.55222130   71.64029694    4.90999985    3.00000000
   16.55527687   71.30220032    4.90999985    3.00000000
   16.55861092   69.76869965    4.90999985    3.01999998
   16.56333351   69.76869965    4.90999985    3.00000000
   16.56722260   71.83390045    4.90999985    3.01999998
   16.57055664   72.12709808    4.90999985    3.01999998
   16.57389069   70.76080322    4.90999985    3.01999998
   16.57694626   71.60269928    4.90999985    3.00000000
   16.57750130   69.91660309    4.90999985    3.00000000
   16.58083344   73.63330078    4.90999985    3.00000000
   16.58416748   73.33809662    4.90999985    3.01999998
   16.58722305   74.27970123    4.90999985    3.00000000
   16.59055710   74.92910004    4.90999985    3.00000000
   16.59361267   74.16100311    4.90999985    3.01999998
   16.59694481   72.70839691    4.90999985    3.00000000
   16.60027885   78.83820343    4.90999985    3.01999998
   16.60333443   74.42430115    4.90999985    3.01999998
   16.60666656   71.70240021    4.90999985    3.01999998
   16.61000061   70.99500275    4.90999985    3.01999998
   16.61444473   70.99500275    4.90999985    3.00000000
   16.61861038   75.44860077    4.90999985    3.01999998
   16.62166595   72.43450165    4.90999985    3.00000000
   16.62500000   69.96530151    4.90999985    3.00000000
   16.62722206   72.96540070    4.90999985    3.00000000
   16.62861061   74.59069824    4.90999985    3.01999998
   16.63194466   72.21849823    4.90999985    3.00000000
   16.63500023   72.03869629    4.90999985    3.01999998
   16.63833237   73.35739899    4.90999985    3.01999998
   16.64166641   70.71140289    4.90999985    3.01999998
   16.64472198   70.40910339    4.90999985    3.01999998
   16.64805603   70.16539764    4.90999985    3.01999998
   16.65138817   69.84010315    4.90999985    3.01999998
   16.65444374   70.60299683    4.90999985    3.00000000
   16.65777779   69.49600220    4.90999985    3.01999998
   16.66083336   70.83709717    4.90999985    3.00000000
   16.66555595   70.83709717    4.90999985    3.00000000
   16.66972160   70.64119720    4.90999985    3.00000000
   16.67305565   74.35700226    4.90999985    3.01999998
   16.67611122   71.01429749    4.90999985    3.01999998
   16.67722130   70.88929749    4.90999985    3.01999998
   16.67972183   72.02749634    4.90999985    3.00000000
   16.68305397   71.22969818    4.90999985    3.01999998
   16.68610954   71.32039642    4.90999985    3.01999998
   16.68944359   73.42070007    4.90999985    3.01999998
   16.69277763   70.01670074    4.90999985    3.01999998
   16.69583321   71.18150330    4.90999985    3.01999998
   16.69916534   71.01190186    4.90999985    3.01999998
   16.70250130   71.24649811    4.90999985    3.03999996
   16.70555687   68.48480225    4.90999985    3.00000000
   16.70888901   69.71510315    4.90999985    3.01999998
   16.71194458   70.96009827    4.90999985    3.01999998
   16.71666718   70.96009827    4.90999985    3.00000000
   16.72083473   70.34709930    4.90999985    3.00000000
   16.72416687   76.59600067    4.90999985    3.00000000
   16.72722244   71.51390076    4.90999985    3.00000000
   16.72777748   71.44689941    4.90999985    3.01999998
   16.73111153   71.69159698    4.90999985    3.00000000
   16.73416710   73.89409637    4.90999985    3.00000000
   16.73750114   74.38220215    4.90999985    3.00000000
   16.74055672   72.39279938    4.90999985    3.00000000
   16.74388885   78.31629944    4.90999985    3.01999998
   16.74722290   72.21420288    4.90999985    3.01999998
   16.75027847   72.16000366    4.90999985    3.01999998
   16.75361061   71.35600281    4.90999985    3.01999998
   16.75694466   72.33270264    4.90999985    3.00000000
   16.76000023   71.54429626    4.90999985    3.01999998
   16.76333427   75.25000000    4.90999985    3.01999998
   16.76805496   75.25000000    4.90999985    3.00000000
   16.77194405   70.27829742    4.90999985    3.00000000
   16.77527809   70.25990295    4.90999985    3.01999998
   16.77722168   69.16729736    4.90999985    3.01999998
   16.77888870   71.79620361    4.90999985    3.01999998
   16.78222275   73.42369843    4.90999985    3.01999998
   16.78527641   72.01709747    4.90999985    3.00000000
   16.78861046   73.13980103    4.90999985    3.00000000
   16.79194450   74.82009888    4.90999985    3.00000000
   16.79500008   72.45739746    4.90999985    3.01999998
   16.79833221   70.30139923    4.90999985    3.01999998
   16.80138779   71.96749878    4.90999985    3.01999998
   16.80472183   72.56330109    4.90999985    3.00000000
   16.80805397   72.22789764    4.90999985    3.01999998
   16.81110954   70.30850220    4.90999985    3.01999998
   16.81444359   69.84549713    4.90999985    3.01999998
   16.81916809   69.84549713    4.90999985    3.01999998
   16.82333374   74.87750244    4.90999985    3.00000000
   16.82638931   73.95870209    4.90999985    3.01999998
   16.82722282   70.58679962    4.90999985    3.01999998
   16.83000183   71.34649658    4.90999985    3.00000000
   16.83333397   71.08979797    4.90999985    3.01999998
   16.83638954   71.88770294    4.90999985    3.01999998
   16.83972359   70.49990082    4.90999985    3.00000000
   16.84305573   74.87400055    4.90999985    3.00000000
   16.84611130   72.83460236    4.90999985    3.01999998
   16.84944534   71.09980011    4.90999985    3.00000000
   16.85250092   68.78839874    4.90999985    3.00000000
   16.85583305   69.73819733    4.90999985    3.01999998
   16.85916710   75.41439819    4.90999985    3.01999998
   16.86222267   70.69750214    4.90999985    3.00000000
   16.86555672   72.41320038    4.90999985    3.00000000
   16.87027740   72.41320038    4.90999985    3.00000000
   16.87444496   72.82399750    4.90999985    3.00000000
   16.87722206   71.37709808    4.90999985    3.03999996
   16.87805557   72.20829773    4.90999985    3.01999998
   16.88138962   74.85949707    4.90999985    3.01999998
   16.88444519   70.19840240    4.90999985    3.01999998
   16.88777733   74.49720001    4.90999985    3.01999998
   16.89111137   71.42189789    4.90999985    3.01999998
   16.89416695   72.91639709    4.90999985    3.00000000
   16.89749908   73.96099854    4.90999985    3.00000000
   16.90055466   72.00849915    4.90999985    3.01999998
   16.90388870   70.33280182    4.90999985    3.01999998
   16.90722275   69.66750336    4.90999985    3.01999998
   16.91027832   71.60179901    4.90999985    3.01999998
   16.91361046   72.82319641    4.90999985    3.01999998
   16.91694450   70.35780334    4.90999985    3.01999998
   16.92166519   70.35780334    4.90999985    3.00000000
   16.92555428   70.51129913    4.90999985    3.00000000
   16.92722130   73.25569916    4.90999985    3.00000000
   16.92916679   72.18810272    4.90999985    3.01999998
   16.93249893   72.10119629    4.90999985    3.00000000
   16.93555450   71.62850189    4.90999985    3.00000000
   16.93888855   73.22750092    4.90999985    3.00000000
   16.94222069   71.02899933    4.90999985    3.00000000
   16.94527626   71.53350067    4.90999985    3.00000000
   16.94861031   70.70729828    4.90999985    3.01999998
   16.95166779   70.75189972    4.90999985    3.01999998
   16.95499992   72.59559631    4.90999985    3.00000000
   16.95833397   74.24259949    4.90999985    3.01999998
   16.96138954   73.78820038    4.90999985    3.01999998
   16.96472359   73.91390228    4.90999985    3.00000000
   16.96805573   71.80740356    4.90999985    3.01999998
   16.97277832   71.80740356    4.90999985    3.01999998
   16.97694588   71.57649994    4.90999985    3.00000000
   16.97750092   71.54740143    4.90999985    3.00000000
   16.98027802   70.89150238    4.90999985    3.00000000
   16.98361206   73.28089905    4.90999985    3.01999998
   16.98694420   71.36139679    4.90999985    3.01999998
   16.98999977   72.09780121    4.90999985    3.01999998
   16.99333382   71.00920105    4.90999985    3.01999998
   16.99638939   72.98529816    4.90999985    3.00000000
   16.99972153   69.73190308    4.90999985    3.00000000
   17.00305557   74.60469818    4.90999985    3.00000000
   17.00611115   70.99600220    4.90999985    3.01999998
   17.00944519   72.90309906    4.90999985    3.00000000
   17.01277733   71.08630371    4.90999985    3.00000000
   17.01583290   73.52850342    4.90999985    3.00000000
   17.01916695   70.49520111    4.90999985    3.00000000
   17.02388954   70.49520111    4.90999985    3.01999998
   17.02805519   75.30789948    4.90999985    3.00000000
   17.03138924   75.29479980    4.90999985    3.00000000
   17.03444481   72.50270081    4.90999985    3.01999998
   17.03777695   72.21800232    4.90999985    3.00000000
   17.04083252   74.17449951    4.90999985    3.00000000
   17.04416656   71.09110260    4.90999985    3.00000000
   17.04749870   73.77179718    4.90999985    3.00000000
   17.05055428   72.36940002    4.90999985    3.01999998
   17.05388832   73.55130005    4.90999985    3.01999998
   17.05722237   73.04969788    4.90999985    3.00000000
   17.06027794   71.45680237    4.90999985    3.01999998
   17.06361008   72.89790344    4.90999985    3.01999998
   17.06666756   70.84269714    4.90999985    3.00000000
   17.07000160   72.52390289    4.90999985    3.00000000
   17.07500076   72.52390289    4.90999985    3.00000000
   17.07916832   72.19110107    4.90999985    3.01999998
   17.08250046   72.42379761    4.90999985    3.00000000
   17.08555603   74.49949646    4.90999985    3.00000000
   17.08889008   74.88849640    4.90999985    3.01999998
   17.09222221   76.56559753    4.90999985    3.01999998
   17.09527779   71.73629761    4.90999985    3.01999998
   17.09861183   73.69419861    4.90999985    3.00000000
   17.10194397   72.29989624    4.90999985    3.00000000
   17.10499954   71.20420074    4.90999985    3.00000000
   17.10833359   72.73819733    4.90999985    3.01999998
   17.11138916   73.77410126    4.90999985    3.00000000
   17.11472321   70.89849854    4.90999985    3.00000000
   17.11805534   70.43849945    4.90999985    3.00000000
   17.12111092   74.25800323    4.90999985    3.00000000
   17.12611198   74.25800323    4.90999985    3.00000000
   17.13027763   73.92620087    4.90999985    3.01999998
   17.13361168   71.82499695    4.90999985    3.01999998
   17.13694382   70.78600311    4.90999985    3.00000000
   17.13999939   70.15730286    4.90999985    3.00000000
   17.14333344   74.45040131    4.90999985    3.00000000
   17.14666748   74.65830231    4.90999985    3.00000000
   17.14972115   69.37200165    4.90999985    3.00000000
   17.15305519   72.16860199    4.90999985    3.00000000
   17.15611076   70.80889893    4.90999985    3.00000000
   17.15944481   75.14150238    4.90999985    3.00000000
   17.16277695   71.93430328    4.90999985    3.01999998
   17.16583252   74.22059631    4.90999985    3.01999998
   17.16916656   71.53250122    4.90999985    3.00000000
   17.17249870   74.12809753    4.90999985    3.00000000
   17.17749977   74.12809753    4.90999985    3.01999998
   17.18166542   72.33560181    4.90999985    3.01999998
   17.18472099   71.09239960    4.90999985    3.00000000
   17.18805504   75.22519684    4.90999985    3.01999998
   17.19111061   71.98870087    4.90999985    3.01999998
   17.19444275   71.45729828    4.90999985    3.00000000
   17.19777679   71.84190369    4.90999985    3.00000000
   17.20083427   71.15509796    4.90999985    3.00000000
   17.20416832   72.03320313    4.90999985    3.00000000
   17.20750046   72.25350189    4.90999985    3.00000000
   17.21055603   71.68009949    4.90999985    3.00000000
   17.21389008   70.28369904    4.90999985    3.00000000
   17.21694565   72.14219666    4.90999985    3.00000000
   17.22027779   72.50830078    4.90999985    3.00000000
   17.22361183   74.55200195    4.90999985    3.01999998
   17.22861099   74.55200195    4.90999985    3.00000000
   17.23277855   72.94190216    4.90999985    3.01999998
   17.23583412   74.58580017    4.90999985    3.00000000
   17.23916626   71.80629730    4.90999985    3.00000000
   17.24250031   75.75730133    4.90999985    3.00000000
   17.24555588   72.47309875    4.90999985    3.00000000
   17.24888992   75.72779846    4.90999985    3.00000000
   17.25222206   73.42839813    4.90999985    3.00000000
   17.25527763   72.39990234    4.90999985    3.00000000
   17.25861168   72.02799988    4.90999985    3.00000000
   17.26166725   75.55570221    4.90999985    3.00000000
   17.26499939   77.24780273    4.90999985    3.01999998
   17.26833344   73.19439697    4.90999985    3.01999998
   17.27138901   71.35810089    4.90999985    3.00000000
   17.27472115   71.56230164    4.90999985    3.00000000
   17.27972221   71.56230164    4.90999985    3.00000000
   17.28388786   69.52670288    4.90999985    3.00000000
   17.28722191   72.81670380    4.90999985    3.00000000
   17.29055595   70.91609955    4.90999985    3.00000000
   17.29361153   72.06479645    4.90999985    3.00000000
   17.29694366   74.95939636    4.90999985    3.00000000
   17.29999924   74.32800293    4.90999985    3.01999998
   17.30333328   70.94709778    4.90999985    3.01999998
   17.30666542   71.86150360    4.90999985    3.01999998
   17.30972099   74.54340363    4.90999985    3.00000000
   17.31305504   74.96379852    4.90999985    3.00000000
   17.31638718   71.56369781    4.90999985    3.00000000
   17.31944466   74.42209625    4.90999985    3.00000000
   17.32277870   70.41709900    4.90999985    3.00000000
   17.32583427   71.78410339    4.90999985    3.00000000
   17.33083344   71.78410339    4.90999985    3.00000000
   17.33500099   72.38040161    4.90999985    3.00000000
   17.33833313   71.31120300    4.90999985    3.01999998
   17.34166718   76.60040283    4.90999985    3.01999998
   17.34472275   72.08450317    4.90999985    3.00000000
   17.34805679   72.91529846    4.90999985    3.00000000
   17.35111237   75.12650299    4.90999985    3.01999998
   17.35444450   71.20130157    4.90999985    3.00000000
   17.35777855   71.66149902    4.90999985    3.00000000
   17.36083412   74.33159637    4.90999985    3.00000000
   17.36416626   75.18740082    4.90999985    3.00000000
   17.36750031   73.52960205    4.90999985    2.98000002
   17.37055588   75.45500183    4.90999985    3.00000000
   17.37388992   76.45529938    4.90999985    3.00000000
   17.37722206   73.59799957    4.90999985    3.00000000
   17.38222313   73.59799957    4.90999985    3.00000000
   17.38638878   70.50199890    4.90999985    3.00000000
   17.38944435   72.07630157    4.90999985    3.00000000
   17.39277840   70.61319733    4.90999985    2.98000002
   17.39583397   71.06050110    4.90999985    3.00000000
   17.39916611   73.60569763    4.90999985    3.00000000
   17.40250015   71.70649719    4.90999985    3.00000000
   17.40555573   71.89070129    4.90999985    3.01999998
   17.40888786   72.41159821    4.90999985    3.00000000
   17.41222191   75.13890076    4.90999985    3.00000000
   17.41527748   74.81040192    4.90999985    2.98000002
   17.41860962   73.83529663    4.90999985    3.00000000
   17.42166519   73.20939636    4.90999985    3.00000000
   17.42499924   72.36789703    4.90999985    3.00000000
   17.42833328   73.24250031    4.90999985    3.00000000
   17.43333244   73.24250031    4.90999985    3.00000000
   17.43750000   73.78050232    4.90999985    3.00000000
   17.44055557   72.59200287    4.90999985    3.00000000
   17.44388771   71.72830200    4.90999985    3.01999998
   17.44722176   73.15940094    4.90999985    3.01999998
   17.45027924   69.75800323    4.90999985    3.00000000
   17.45361137   70.71679688    4.90999985    3.00000000
   17.45694542   70.47630310    4.90999985    3.00000000
   17.46000099   71.96980286    4.90999985    3.00000000
   17.46333504   70.42099762    4.90999985    3.00000000
   17.46666718   69.26380157    4.90999985    3.00000000
   17.46972275   72.19020081    4.90999985    3.00000000
   17.47305679   73.07659912    4.90999985    3.00000000
   17.47611237   74.81580353    4.90999985    3.00000000
   17.49749947   74.81580353    4.90999985    3.00000000
   17.50166702   76.08820343    4.90999985    3.00000000
   17.50472260   74.23439789    4.90999985    3.01999998
   17.50805473   71.40650177    4.90999985    3.01999998
   17.51111031   74.49009705    4.90999985    3.01999998
   17.51444435   71.60870361    4.90999985    3.00000000
   17.51777840   72.68859863    4.90999985    3.01999998
   17.52083397   70.51139832    4.90999985    3.00000000
   17.52416611   69.47219849    4.90999985    3.00000000
   17.52750015   71.91819763    4.90999985    3.00000000
   17.53055573   72.28820038    4.90999985    3.00000000
   17.53388786   71.66850281    4.90999985    3.00000000
   17.53694344   72.29129791    4.90999985    3.00000000
   17.54027748   71.11380005    4.90999985    3.00000000
   17.54361153   72.39320374    4.90999985    3.00000000
   17.54500008   73.94339752    4.90999985    3.00000000
   17.54916573   73.94339752    4.90999985    3.00000000
   17.55305481   72.92510223    4.90999985    2.98000002
   17.55638885   71.63639832    4.90999985    3.00000000
   17.55972099   70.03839874    4.90999985    3.00000000
   17.56277657   69.78289795    4.90999985    3.00000000
   17.56611061   73.85179901    4.90999985    3.00000000
   17.56944466   71.61180115    4.90999985    3.00000000
   17.57250023   71.14550018    4.90999985    3.00000000
   17.57583427   70.63529968    4.90999985    3.00000000
   17.57888985   69.85040283    4.90999985    3.00000000
   17.58222389   70.63839722    4.90999985    3.00000000
   17.58555603   70.35299683    4.90999985    2.98000002
   17.58861160   70.13189697    4.90999985    3.00000000
   17.59194565   71.96959686    4.90999985    2.98000002
   17.59500122   73.98149872    4.90999985    3.00000000
   17.59555626   75.59310150    4.90999985    3.00000000
   17.60027885   75.59310150    4.90999985    3.00000000
   17.60444450   74.15650177    4.90999985    3.00000000
   17.60750008   75.10030365    4.90999985    3.00000000
   17.61083412   73.44039917    4.90999985    3.01999998
   17.61416626   74.24739838    4.90999985    3.00000000
   17.61722183   72.67389679    4.90999985    3.01999998
   17.62055588   72.61799622    4.90999985    3.00000000
   17.62361145   72.36879730    4.90999985    2.98000002
   17.62694550   72.70230103    4.90999985    3.00000000
   17.63027763   73.46410370    4.90999985    3.00000000
   17.63333321   72.93679810    4.90999985    3.00000000
   17.63666725   74.34480286    4.90999985    3.00000000
   17.63999939   70.31490326    4.90999985    3.00000000
   17.64305496   71.69080353    4.90999985    3.00000000
   17.64500046   75.34819794    4.90999985    3.00000000
   17.64666748   72.15950012    4.90999985    3.00000000
   17.65138817   72.15950012    4.90999985    3.00000000
   17.65555573   72.30310059    4.90999985    2.98000002
   17.65888786   70.65419769    4.90999985    3.00000000
   17.66194344   72.75430298    4.90999985    3.00000000
   17.66527748   72.89630127    4.90999985    3.00000000
   17.66833305   76.44650269    4.90999985    3.00000000
   17.67166519   72.19830322    4.90999985    3.00000000
   17.67499924   73.03610229    4.90999985    2.98000002
   17.67805481   72.25530243    4.90999985    3.00000000
   17.68138885   71.53869629    4.90999985    2.98000002
   17.68472099   71.72640228    4.90999985    3.00000000
   17.68777657   74.97489929    4.90999985    3.00000000
   17.69111061   73.68270111    4.90999985    3.00000000
   17.69416618   71.75019836    4.90999985    3.00000000
   17.69499969   74.79840088    4.90999985    3.00000000
   17.69777679   73.86499786    4.90999985    2.98000002
   17.70250130   73.86499786    4.90999985    2.98000002
   17.70666695   79.16120148    4.90999985    3.00000000
   17.71000099   73.79149628    4.90999985    2.98000002
   17.71305656   71.50779724    4.90999985    3.00000000
   17.71638870   70.16919708    4.90999985    3.00000000
   17.71972275   72.19819641    4.90999985    3.00000000
   17.72277832   68.67880249    4.90999985    3.00000000
   17.72611237   72.96980286    4.90999985    3.00000000
   17.72916794   71.72740173    4.90999985    3.00000000
   17.73250008   72.85890198    4.90999985    3.00000000
   17.73583412   73.02570343    4.90999985    3.00000000
   17.73888969   73.80899811    4.90999985    3.00000000
   17.74222183   73.43879700    4.90999985    3.00000000
   17.74500084   74.26820374    4.90999985    3.00000000
   17.74583435   73.78019714    4.90999985    2.98000002
   17.74916649   73.65390015    4.90999985    2.98000002
   17.75361061   73.65390015    4.90999985    3.00000000
   17.75777817   74.48320007    4.90999985    3.00000000
   17.76111031   73.31279755    4.90999985    3.00000000
   17.76444435   73.67769623    4.90999985    2.98000002
   17.76749992   71.90760040    4.90999985    3.00000000
   17.77083397   73.14910126    4.90999985    3.00000000
   17.77388954   70.52249908    4.90999985    3.00000000
   17.77722168   70.35459900    4.90999985    3.00000000
   17.78055573   71.87950134    4.90999985    3.00000000
   17.78361130   71.63590240    4.90999985    3.00000000
   17.78694344   70.46939850    4.90999985    3.00000000
   17.79027748   71.79109955    4.90999985    3.00000000
   17.79333305   71.50720215    4.90999985    3.00000000
   17.79500008   72.85079956    4.90999985    3.00000000
   17.79694366   72.35980225    4.90999985    3.00000000
   17.80027771   75.42369843    4.90999985    3.00000000
   17.80499840   75.42369843    4.90999985    3.00000000
   17.80916595   73.10870361    4.90999985    2.98000002
   17.81222153   72.05079651    4.90999985    3.00000000
   17.81555557   72.42389679    4.90999985    3.00000000
   17.81861115   72.48010254    4.90999985    2.98000002
   17.82194519   70.52929688    4.90999985    2.98000002
   17.82527924   72.19550323    4.90999985    3.00000000
   17.82833481   70.66000366    4.90999985    2.98000002
   17.83166695   69.62229919    4.90999985    3.00000000
   17.83500099   71.37819672    4.90999985    3.00000000
   17.83805656   73.63809967    4.90999985    3.00000000
   17.84138870   71.70390320    4.90999985    3.00000000
   17.84444427   73.92179871    4.90999985    3.00000000
   17.84500122   71.85810089    4.90999985    3.00000000
   17.84833336   71.09369659    4.90999985    3.00000000
   17.85166740   72.53939819    4.90999985    2.98000002
   17.85611153   72.53939819    4.90999985    3.00000000
   17.86027908   70.41780090    4.90999985    2.98000002
   17.86333466   71.58370209    4.90999985    3.00000000
   17.86666679   71.65560150    4.90999985    3.00000000
   17.87000084   72.91719818    4.90999985    2.98000002
   17.87305641   72.25540161    4.90999985    2.98000002
   17.87638855   69.50279999    4.90999985    3.00000000
   17.87972260   73.11620331    4.90999985    3.00000000
   17.88277817   70.24970245    4.90999985    3.00000000
   17.88611031   73.38259888    4.90999985    2.98000002
   17.88916588   71.74569702    4.90999985    3.00000000
   17.89249992   71.39109802    4.90999985    3.00000000
   17.89500046   70.76850128    4.90999985    3.00000000
   17.89611053   69.69370270    4.90999985    3.00000000
   17.89944458   71.55680084    4.90999985    2.98000002
   17.90250015   69.03369904    4.90999985    3.00000000
   17.90722275   69.03369904    4.90999985    3.00000000
   17.91138840   71.87229919    4.90999985    3.00000000
   17.91472244   72.11289978    4.90999985    3.00000000
   17.91777802   70.53949738    4.90999985    3.00000000
   17.92111015   71.27010345    4.90999985    2.98000002
   17.92444420   70.45909882    4.90999985    2.98000002
   17.92749977   69.56600189    4.90999985    2.98000002
   17.93083191   69.55809784    4.90999985    3.00000000
   17.93388748   67.43250275    4.90999985    3.00000000
   17.93722153   70.79599762    4.90999985    2.98000002
   17.94055557   68.80599976    4.90999985    2.98000002
   17.94361115   68.88929749    4.90999985    2.98000002
   17.94499969   70.73159790    4.90999985    2.98000002
   17.94722176   69.70629883    4.90999985    3.00000000
   17.95055580   69.30539703    4.90999985    3.00000000
   17.95361137   69.90200043    4.90999985    3.00000000
   17.95833397   69.90200043    4.90999985    3.00000000
   17.96250153   70.53720093    4.90999985    3.00000000
   17.96583366   70.66770172    4.90999985    3.00000000
   17.96916771   72.91919708    4.90999985    3.00000000
   17.97222328   72.27349854    4.90999985    3.00000000
   17.97555542   69.90540314    4.90999985    3.00000000
   17.97861099   69.49040222    4.90999985    2.98000002
   17.98194504   71.12120056    4.90999985    2.98000002
   17.98527718   71.85540009    4.90999985    3.00000000
   17.98833275   72.23480225    4.90999985    2.98000002
   17.99166679   76.11609650    4.90999985    3.00000000
   17.99500084   71.94249725    4.90999985    3.00000000
   17.99555588   70.83599854    4.90999985    3.00000000
   17.99861145   71.75939941    4.90999985    3.00000000
   18.00194359   73.46659851    4.90999985    2.98000002
   18.00499916   74.88860321    4.90999985    3.00000000
   18.00972176   74.88860321    4.90999985    3.00000000
   18.01388931   69.20469666    4.90999985    3.00000000
   18.01694489   70.50270081    4.90999985    2.98000002
   18.02027702   71.98699951    4.90999985    3.00000000
   18.02333260   71.50409698    4.90999985    3.00000000
   18.02666664   73.44429779    4.90999985    2.98000002
   18.03000069   71.84850311    4.90999985    3.00000000
   18.03305435   73.08869934    4.90999985    3.00000000
   18.03638840   71.02310181    4.90999985    2.98000002
   18.03972244   73.93060303    4.90999985    3.00000000
   18.04277802   72.56639862    4.90999985    3.00000000
   18.04555511   71.95989990    4.90999985    2.98000002
   18.04638863   71.15190125    4.90999985    2.98000002
   18.04972076   71.59819794    4.90999985    3.00000000
   18.05277634   70.91159821    4.90999985    2.98000002
   18.05611038   73.29470062    4.90999985    3.00000000
   18.06083298   73.29470062    4.90999985    2.98000002
   18.06499863   69.52490234    4.90999985    2.98000002
   18.06805611   73.52929688    4.90999985    3.00000000
   18.07139015   69.82029724    4.90999985    2.98000002
   18.07472229   70.47109985    4.90999985    2.98000002
   18.07777786   72.22879791    4.90999985    2.98000002
   18.08111191   69.64450073    4.90999985    2.98000002
   18.08444595   71.24050140    4.90999985    2.98000002
   18.08750153   72.08249664    4.90999985    2.98000002
   18.09083366   71.20089722    4.90999985    2.98000002
   18.09388924   69.48639679    4.90999985    3.00000000
   18.09555626   72.93489838    4.90999985    3.00000000
   18.09749985   73.17530060    4.90999985    3.00000000
   18.10083389   72.87940216    4.90999985    3.00000000
   18.10416794   68.11340332    4.90999985    3.01999998
   18.10722351   71.57710266    4.90999985    2.98000002
   18.11194420   71.57710266    4.90999985    2.98000002
   18.11611176   73.89409637    4.90999985    3.00000000
   18.11944389   72.24479675    4.90999985    2.98000002
   18.12249947   70.20809937    4.90999985    2.98000002
   18.12583351   72.38339996    4.90999985    2.98000002
   18.12916756   71.19360352    4.90999985    2.98000002
   18.13222313   70.65869904    4.90999985    2.98000002
   18.13555527   73.52999878    4.90999985    2.98000002
   18.13888931   71.25240326    4.90999985    2.98000002
   18.14194489   71.05850220    4.90999985    2.98000002
   18.14527702   69.56829834    4.90999985    2.98000002
   18.14583397   69.93689728    4.90999985    2.98000002
   18.14888954   69.42620087    4.90999985    2.98000002
   18.15222168   70.41739655    4.90999985    3.00000000
   18.15555573   69.75399780    4.90999985    3.00000000
   18.15861130   70.80639648    4.90999985    2.98000002
   18.16305542   70.80639648    4.90999985    3.00000000
   18.16722107   73.72019958    4.90999985    2.98000002
   18.17055511   71.69789886    4.90999985    2.98000002
   18.17388916   73.19000244    4.90999985    2.98000002
   18.17694473   70.14929962    4.90999985    2.96000004
   18.18027687   70.37889862    4.90999985    2.98000002
   18.18333244   71.25370026    4.90999985    2.98000002
   18.18666649   72.40480042    4.90999985    3.00000000
   18.18999863   71.87039948    4.90999985    2.98000002
   18.19305420   72.14810181    4.90999985    2.98000002
   18.19583321   73.50070190    4.90999985    2.98000002
   18.19694328   72.14479828    4.90999985    2.98000002
   18.20000076   72.87830353    4.90999985    2.98000002
   18.20333481   73.15850067    4.90999985    2.98000002
   18.20639038   71.20339966    4.90999985    2.98000002
   18.20972252   69.71730042    4.90999985    2.98000002
   18.21444511   69.71730042    4.90999985    2.98000002
   18.21861076   66.88249969    4.90999985    2.98000002
   18.22166634   68.34580231    4.90999985    2.98000002
   18.22500038   67.54679871    4.90999985    2.98000002
   18.22805595   70.07180023    4.90999985    2.98000002
   18.23139000   69.36849976    4.90999985    3.00000000
   18.23472214   70.26619720    4.90999985    2.98000002
   18.23777771   74.10169983    4.90999985    2.98000002
   18.24111176   75.38539886    4.90999985    2.98000002
   18.24444389   71.76699829    4.90999985    2.98000002
   18.24583435   73.46379852    4.90999985    2.98000002
   18.24805641   72.03269958    4.90999985    2.96000004
   18.25111198   71.31629944    4.90999985    2.96000004
   18.25444412   69.24030304    4.90999985    2.96000004
   18.25749969   69.78569794    4.90999985    2.98000002
   18.26083374   74.09880066    4.90999985    2.98000002
   18.26555634   74.09880066    4.90999985    3.00000000
   18.26972198   69.85810089    4.90999985    2.98000002
   18.27277756   70.81649780    4.90999985    2.98000002
   18.27611160   71.82180023    4.90999985    2.98000002
   18.27944374   73.79579926    4.90999985    2.98000002
   18.28249931   72.37449646    4.90999985    2.98000002
   18.28583336   71.22190094    4.90999985    2.98000002
   18.28888893   73.32630157    4.90999985    2.98000002
   18.29222107   75.08370209    4.90999985    2.98000002
   18.29555511   71.60649872    4.90999985    2.96000004
   18.29611015   76.60549927    4.90999985    2.98000002
   18.29916573   69.10489655    4.90999985    2.98000002
   18.30249977   78.13690186    4.90999985    2.98000002
   18.30583191   69.43090057    4.90999985    2.98000002
   18.30888748   68.46080017    4.90999985    2.98000002
   18.31222153   71.26439667    4.90999985    2.98000002
   18.31666756   71.26439667    4.90999985    2.98000002
   18.32083511   67.58380127    4.90999985    2.96000004
   18.32416725   72.25209808    4.90999985    2.96000004
   18.32722282   71.57969666    4.90999985    2.98000002
   18.33055687   69.99440002    4.90999985    2.98000002
   18.33361244   71.84030151    4.90999985    2.96000004
   18.33694458   71.43389893    4.90999985    2.98000002
   18.34027863   71.87529755    4.90999985    2.98000002
   18.34333420   71.16750336    4.90999985    2.98000002
   18.34611130   70.46530151    4.90999985    2.98000002
   18.34694481   73.72080231    4.90999985    2.96000004
   18.35027885   71.64260101    4.90999985    2.98000002
   18.35361099   72.52169800    4.90999985    2.96000004
   18.35666656   72.72789764    4.90999985    2.96000004
   18.36000061   69.97619629    4.90999985    2.98000002
   18.36333466   70.82959747    4.90999985    2.96000004
   18.36777878   70.82959747    4.90999985    2.98000002
   18.37194443   72.68560028    4.90999985    2.96000004
   18.37527847   71.54660034    4.90999985    2.98000002
   18.37833405   69.72920227    4.90999985    2.98000002
   18.38166618   69.23539734    4.90999985    2.98000002
   18.38500023   70.83869934    4.90999985    2.98000002
   18.38805580   71.72170258    4.90999985    2.98000002
   18.39138794   72.59159851    4.90999985    2.96000004
   18.39472198   73.11489868    4.90999985    2.98000002
   18.39611053   70.40940094    4.90999985    2.98000002
   18.39833260   68.86229706    4.90999985    2.98000002
   18.40138817   75.34860229    4.90999985    2.98000002
   18.40472221   68.54869843    4.90999985    2.98000002
   18.40777779   70.39040375    4.90999985    2.98000002
   18.41110992   70.71800232    4.90999985    2.96000004
   18.41444397   71.62909698    4.90999985    2.98000002
   18.41916656   71.62909698    4.90999985    2.96000004
   18.42305565   70.58920288    4.90999985    2.98000002
   18.42638779   70.70290375    4.90999985    2.96000004
   18.42972183   71.43229675    4.90999985    2.96000004
   18.43277740   71.08339691    4.90999985    2.96000004
   18.43610954   69.85500336    4.90999985    2.98000002
   18.43944359   69.77510071    4.90999985    2.96000004
   18.44249916   69.31359863    4.90999985    2.98000002
   18.44583321   70.75679779    4.90999985    2.98000002
   18.44638824   70.93869781    4.90999985    2.98000002
   18.44944382   69.16929626    4.90999985    2.98000002
   18.45277786   68.21839905    4.90999985    2.98000002
   18.45611191   69.66729736    4.90999985    2.98000002
   18.45916748   71.58619690    4.90999985    2.96000004
   18.46250153   71.35130310    4.90999985    2.98000002
   18.46583366   67.15080261    4.90999985    2.98000002
   18.47027779   67.15080261    4.90999985    2.96000004
   18.47444534   70.06700134    4.90999985    2.96000004
   18.47750092   69.72229767    4.90999985    2.98000002
   18.48083305   72.62850189    4.90999985    2.98000002
   18.48416710   78.78279877    4.90999985    3.00000000
   18.48722267   78.93689728    4.90999985    2.17000008
   18.49055672   71.44329834    4.90999985    2.98000002
   18.49361229   71.29959869    4.90999985    2.96000004
   18.51083374   67.41480255    4.90999985    2.96000004
   18.51333427   67.55509949    4.90999985    2.96000004
   18.51666641   67.96929932    4.90999985    2.96000004
   18.52166557   67.96929932    4.90999985    2.98000002
   18.52583313   67.59700012    4.90999985    2.96000004
   18.52888870   69.86820221    4.90999985    2.96000004
   18.53222275   71.60359955    4.90999985    2.96000004
   18.53555489   71.76879883    4.90999985    2.96000004
   18.53861046   70.33100128    4.90999985    2.96000004
   18.54194450   69.88960266    4.90999985    2.96000004
   18.54500008   72.29699707    4.90999985    2.96000004
   18.54833221   70.48940277    4.90999985    2.96000004
   18.55166626   71.01029968    4.90999985    2.96000004
   18.55472183   70.16269684    4.90999985    2.96000004
   18.55805397   70.87110138    4.90999985    2.96000004
   18.56083298   71.05190277    4.90999985    2.96000004
   18.56166649   71.74349976    4.90999985    2.96000004
   18.56499863   72.85939789    4.90999985    2.96000004
   18.56805611   75.69920349    4.90999985    2.94000006
   18.57277870   75.69920349    4.90999985    2.96000004
   18.57694626   70.23030090    4.90999985    2.96000004
   18.58027840   72.49250031    4.90999985    2.96000004
   18.58333397   69.17130280    4.90999985    2.96000004
   18.58666801   75.45089722    4.90999985    2.96000004
   18.59000015   69.95169830    4.90999985    2.96000004
   18.59305573   69.18810272    4.90999985    2.96000004
   18.59638977   71.77890015    4.90999985    2.96000004
   18.59944534   68.94779968    4.90999985    2.96000004
   18.60277748   70.25830078    4.90999985    2.96000004
   18.60611153   69.05439758    4.90999985    2.96000004
   18.60916710   72.70020294    4.90999985    2.96000004
   18.61083412   73.88040161    4.90999985    2.96000004
   18.61277771   69.85500336    4.90999985    2.98000002
   18.61611176   71.65119934    4.90999985    2.96000004
   18.61944389   70.98179626    4.90999985    2.96000004
   18.62388992   70.98179626    4.90999985    2.96000004
   18.62805557   69.08840179    4.90999985    2.96000004
   18.63138962   71.36840057    4.90999985    2.96000004
   18.63472176   72.76599884    4.90999985    2.96000004
   18.63777733   71.55490112    4.90999985    2.96000004
   18.64111137   70.91030121    4.90999985    2.98000002
   18.64416695   72.37010193    4.90999985    2.98000002
   18.64749908   74.48320007    4.90999985    2.96000004
   18.65083313   70.81009674    4.90999985    2.96000004
   18.65416718   72.26899719    4.90999985    2.96000004
   18.65722275   72.52100372    4.90999985    2.96000004
   18.66055489   71.21219635    4.90999985    2.96000004
   18.66110992   74.42739868    4.90999985    2.96000004
   18.66416550   72.75659943    4.90999985    2.96000004
   18.66749954   71.62819672    4.90999985    2.96000004
   18.67083359   71.19740295    4.90999985    2.96000004
   18.67527771   71.19740295    4.90999985    2.94000006
   18.67944336   70.48229980    4.90999985    2.96000004
   18.68249893   70.87110138    4.90999985    2.96000004
   18.68583298   70.70549774    4.90999985    2.96000004
   18.68888855   68.27390289    4.90999985    2.96000004
   18.69222069   70.21880341    4.90999985    2.96000004
   18.69555473   72.20809937    4.90999985    2.96000004
   18.69861031   72.52680206    4.90999985    2.96000004
   18.70194435   72.07230377    4.90999985    2.96000004
   18.70527840   70.91300201    4.90999985    2.96000004
   18.70833397   69.34750366    4.90999985    2.96000004
   18.71111107   69.33840179    4.90999985    2.96000004
   18.71194458   73.63590240    4.90999985    2.96000004
   18.71527863   69.82019806    4.90999985    2.96000004
   18.71861076   70.83059692    4.90999985    2.94000006
   18.72166634   70.43409729    4.90999985    2.96000004
   18.72638893   70.43409729    4.90999985    2.96000004
   18.73055649   70.98370361    4.90999985    2.96000004
   18.73361206   70.66390228    4.90999985    2.96000004
   18.73694420   70.98549652    4.90999985    2.96000004
   18.74027824   70.11009979    4.90999985    2.96000004
   18.74333382   71.62789917    4.90999985    2.96000004
   18.74666786   71.21070099    4.90999985    2.96000004
   18.75000000   72.82659912    4.90999985    2.96000004
   18.75305557   71.35459900    4.90999985    2.96000004
   18.75638962   71.80780029    4.90999985    2.96000004
   18.75944519   69.03070068    4.90999985    2.96000004
   18.76111031   70.21240234    4.90999985    2.96000004
   18.76305580   67.14920044    4.90999985    2.96000004
   18.76638794   68.13809967    4.90999985    2.96000004
   18.76972198   70.31950378    4.90999985    2.96000004
   18.77277756   71.49310303    4.90999985    2.96000004
   18.77750015   71.49310303    4.90999985    2.94000006
   18.78166580   71.30509949    4.90999985    2.96000004
   18.78499985   71.87509918    4.90999985    2.96000004
   18.78805542   70.87960052    4.90999985    2.96000004
   18.79138756   76.44930267    4.90999985    2.96000004
   18.79472160  148.00799561    4.90999985    3.05999994
   18.79777718   -1.00000000    4.90999985    2.67000008
   18.80111122   96.56289673    4.90999985    1.39999998
   18.80416679   72.71869659    4.90999985    2.94000006
   18.80749893   72.98149872    4.90999985    2.91000009
   18.81083298   72.21970367    4.90999985    2.98000002
   18.81138802   70.36409760    4.90999985    2.98000002
   18.81444359   73.91880035    4.90999985    2.96000004
   18.81777954   71.11389923    4.90999985    2.96000004
   18.82111168   72.10510254    4.90999985    2.96000004
   18.82416725   72.56980133    4.90999985    2.96000004
   18.82861137   72.56980133    4.90999985    2.94000006
   18.83277893   69.31120300    4.90999985    2.94000006
   18.83611107   74.64409637    4.90999985    2.94000006
   18.83944511   73.51750183    4.90999985    2.94000006
   18.84250069   73.06610107    4.90999985    2.96000004
   18.84583473   70.11519623    4.90999985    2.96000004
   18.84889030   77.28589630    4.90999985    2.96000004
   18.85222244   75.00379944    4.90999985    2.96000004
   18.85555649   72.62310028    4.90999985    2.96000004
   18.85861206   69.71700287    4.90999985    2.96000004
   18.86138916   73.23259735    4.90999985    2.94000006
   18.86222267   71.47669983    4.90999985    2.96000004
   18.86555672   67.79160309    4.90999985    2.96000004
   18.86888885   70.93389893    4.90999985    2.96000004
   18.87194443   71.36799622    4.90999985    2.96000004
   18.87527847   71.71240234    4.90999985    2.94000006
   18.88000107   71.71240234    4.90999985    2.94000006
   18.88416672   69.13320160    4.90999985    2.94000006
   18.88722229   68.77770233    4.90999985    2.94000006
   18.89055634   68.44960022    4.90999985    2.94000006
   18.89361191   70.34390259    4.90999985    2.96000004
   18.89694405   68.21849823    4.90999985    2.94000006
   18.90027809   68.93150330    4.90999985    2.94000006
   18.90333366   69.82659912    4.90999985    2.94000006
   18.90666580   72.05999756    4.90999985    2.94000006
   18.90999985   69.70369720    4.90999985    2.94000006
   18.91138840   72.55419922    4.90999985    2.94000006
   18.91361046   70.69480133    4.90999985    2.94000006
   18.91666603   70.29930115    4.90999985    2.96000004
   18.92000008   70.50550079    4.90999985    2.94000006
   18.92305565   73.90809631    4.90999985    2.94000006
   18.92638779   70.75499725    4.90999985    2.94000006
   18.93111038   70.75499725    4.90999985    2.94000006
   18.93527603   68.26149750    4.90999985    2.94000006
   18.93833160   69.34999847    4.90999985    2.94000006
   18.94166565   68.72380066    4.90999985    2.94000006
   18.94499969   69.29709625    4.90999985    2.96000004
   18.94805527   69.47650146    4.90999985    2.94000006
   18.95138931   69.85050201    4.90999985    2.96000004
   18.95472336   71.03900146    4.90999985    2.94000006
   18.95777893   69.41390228    4.90999985    2.94000006
   18.96111107   70.03520203    4.90999985    2.94000006
   18.96166801   72.07859802    4.90999985    2.94000006
   18.96472359   72.09259796    4.90999985    2.94000006
   18.96805573   73.84739685    4.90999985    2.93000007
   18.97138977   69.19059753    4.90999985    2.94000006
   18.97444534   72.87049866    4.90999985    2.94000006
   18.97777748   69.03189850    4.90999985    2.96000004
   18.98222351   69.03189850    4.90999985    2.94000006
   18.98638916   69.63310242    4.90999985    2.94000006
   18.98972321   70.13700104    4.90999985    2.94000006
   18.99277878   70.38279724    4.90999985    2.93000007
   18.99611092   72.18550110    4.90999985    2.94000006
   18.99916649   72.82879639    4.90999985    2.94000006
   19.00250053   73.32279968    4.90999985    2.94000006
   19.00583267   71.69909668    4.90999985    2.94000006
   19.00888824   70.27709961    4.90999985    2.94000006
   19.01166725   73.97399902    4.90999985    2.94000006
   19.01250076   72.04630280    4.90999985    2.94000006
   19.01583290   70.63179779    4.90999985    2.94000006
   19.01916695   75.38649750    4.90999985    2.94000006
   19.02222252   74.38539886    4.90999985    2.94000006
   19.02555466   68.80410004    4.90999985    2.94000006
   19.02888870   68.41560364    4.90999985    2.94000006
   19.03333282   68.41560364    4.90999985    2.93000007
   19.03750038   69.15080261    4.90999985    2.94000006
   19.04083252   71.09089661    4.90999985    2.94000006
   19.04388809   70.96759796    4.90999985    2.94000006
   19.04722214   72.14749908    4.90999985    2.94000006
   19.05055428   69.82219696    4.90999985    2.94000006
   19.05360985   69.92369843    4.90999985    2.94000006
   19.05694389   69.18440247    4.90999985    2.93000007
   19.05999947   71.53209686    4.90999985    2.96000004
   19.06194305   72.16880035    4.90999985    2.94000006
   19.06361008   71.90630341    4.90999985    2.94000006
   19.06694603   71.09510040    4.90999985    2.94000006
   19.07027817   71.70439911    4.90999985    2.94000006
   19.07333374   73.10849762    4.90999985    2.94000006
   19.07666779   74.10150146    4.90999985    2.94000006
   19.08000183   74.80999756    4.90999985    2.94000006
   19.08444595   74.80999756    4.90999985    2.94000006
   19.08861160   71.82029724    4.90999985    2.94000006
   19.09194565   70.24749756    4.90999985    2.94000006
   19.09527779   71.21080017    4.90999985    2.94000006
   19.09833336   74.14209747    4.90999985    2.94000006
   19.10166740   73.02380371    4.90999985    2.94000006
   19.10472298   71.08280182    4.90999985    2.94000006
   19.10805511   71.67849731    4.90999985    2.94000006
   19.11138916   71.79959869    4.90999985    2.94000006
   19.11194420   70.29039764    4.90999985    2.94000006
   19.11472321   71.15670013    4.90999985    2.94000006
   19.11805534   69.94509888    4.90999985    2.94000006
   19.12138939   69.35019684    4.90999985    2.94000006
   19.12444496   71.48819733    4.90999985    2.93000007
   19.12777710   71.04309845    4.90999985    2.93000007
   19.13111115   70.99250031    4.90999985    2.94000006
   19.13583374   70.99250031    4.90999985    2.94000006
   19.13999939   72.34960175    4.90999985    2.94000006
   19.14305496   70.50160217    4.90999985    2.93000007
   19.14638901   68.67209625    4.90999985    2.94000006
   19.14944458   72.19509888    4.90999985    2.94000006
   19.15277672   69.20880127    4.90999985    2.93000007
   19.15611076   71.18499756    4.90999985    2.93000007
   19.15916634   71.81960297    4.90999985    2.94000006
   19.16194344   71.39089966    4.90999985    2.93000007
   19.16277695   69.85910034    4.90999985    2.93000007
   19.16611099   71.32070160    4.90999985    2.94000006
   19.16944313   72.65859985    4.90999985    2.94000006
   19.17249870   69.49040222    4.90999985    2.94000006
   19.17583275   71.72080231    4.90999985    2.94000006
   19.17916679   71.99539948    4.90999985    2.94000006
   19.18222237   71.90309906    4.90999985    2.93000007
   19.18694305   71.90309906    4.90999985    2.94000006
   19.19111061   71.09490204    4.90999985    2.94000006
   19.19416618   69.52069855    4.90999985    2.94000006
   19.19749832   70.09940338    4.90999985    2.93000007
   19.20083427   69.63870239    4.90999985    2.93000007
   19.20388985   71.10449982    4.90999985    2.93000007
   19.20722389   71.30110168    4.90999985    2.93000007
   19.21055603   75.57589722    4.90999985    2.93000007
   19.21194458   71.41919708    4.90999985    2.93000007
   19.21389008   72.32610321    4.90999985    2.93000007
   19.21722221   73.52010345    4.90999985    2.94000006
   19.22055626   71.07230377    4.90999985    2.94000006
   19.22361183   73.60829926    4.90999985    2.93000007
   19.22694588   74.64559937    4.90999985    2.93000007
   19.23027802   71.27600098    4.90999985    2.94000006
   19.23333359   73.02259827    4.90999985    2.94000006
   19.23805618   73.02259827    4.90999985    2.93000007
   19.24222183   73.36250305    4.90999985    2.93000007
   19.24555588   71.31520081    4.90999985    2.93000007
   19.24861145   71.02629852    4.90999985    2.94000006
   19.25194359   69.72409821    4.90999985    2.93000007
   19.25527763   71.16169739    4.90999985    2.94000006
   19.25833321   69.79540253    4.90999985    2.93000007
   19.26166725   71.07340240    4.90999985    2.93000007
   19.26222229   70.67510223    4.90999985    2.94000006
   19.26527786   69.76460266    4.90999985    2.93000007
   19.26861000   69.53589630    4.90999985    2.93000007
   19.27194405   70.96739960    4.90999985    2.94000006
   19.27499962   71.10269928    4.90999985    2.93000007
   19.27833366   70.22979736    4.90999985    2.93000007
   19.28166580   69.38939667    4.90999985    2.94000006
   19.28472137   73.12979889    4.90999985    2.93000007
   19.28916550   73.12979889    4.90999985    2.93000007
   19.29333305   74.51979828    4.90999985    2.93000007
   19.29666710   68.17310333    4.90999985    2.93000007
   19.29999924   70.45719910    4.90999985    2.93000007
   19.30305481   68.97070313    4.90999985    2.94000006
   19.30638885   67.81690216    4.90999985    2.93000007
   19.30944443   70.27790070    4.90999985    2.93000007
   19.31222153   72.40080261    4.90999985    2.93000007
   19.31305504   70.27600098    4.90999985    2.93000007
   19.31638718   73.35089874    4.90999985    2.93000007
   19.31972313   70.95919800    4.90999985    2.93000007
   19.32277870   73.08930206    4.90999985    2.94000006
   19.32611275   71.85500336    4.90999985    2.93000007
   19.32944489   72.10759735    4.90999985    2.93000007
   19.33250046   72.05899811    4.90999985    2.93000007
   19.33583450   72.48090363    4.90999985    2.93000007
   19.34055710   72.48090363    4.90999985    2.93000007
   19.34472275   70.74939728    4.90999985    2.93000007
   19.34777832   73.34279633    4.90999985    2.93000007
   19.35111237   71.95140076    4.90999985    2.93000007
   19.35416794   72.34780121    4.90999985    2.93000007
   19.35750008   72.06140137    4.90999985    2.93000007
   19.36083412   76.91300201    4.90999985    2.93000007
   19.36222267   71.96330261    4.90999985    2.93000007
   19.36416626   71.06590271    4.90999985    2.93000007
   19.36750031   73.98370361    4.90999985    2.93000007
   19.37083435   70.88030243    4.90999985    2.93000007
   19.37388992   71.18830109    4.90999985    2.93000007
   19.37722206   71.63999939    4.90999985    2.93000007
   19.38055611   72.45960236    4.90999985    2.93000007
   19.38361168   75.63069916    4.90999985    2.93000007
   19.38694382   73.44490051    4.90999985    2.93000007
   19.39166641   73.44490051    4.90999985    2.93000007
   19.39583397   70.09719849    4.90999985    2.93000007
   19.39888954   72.06379700    4.90999985    2.93000007
   19.40222168   74.61940002    4.90999985    2.93000007
   19.40555573   70.72940063    4.90999985    2.91000009
   19.40861130   72.61380005    4.90999985    2.93000007
   19.41194344   71.39900208    4.90999985    2.93000007
   19.41250038   71.52590179    4.90999985    2.93000007
   19.41583252   72.35900116    4.90999985    2.93000007
   19.41888809   73.25260162    4.90999985    2.91000009
   19.42222214   73.13529968    4.90999985    2.91000009
   19.42555428   72.65290070    4.90999985    2.93000007
   19.42860985   72.32540131    4.90999985    2.94000006
   19.43194389   69.46880341    4.90999985    2.93000007
   19.43499947   72.40370178    4.90999985    2.93000007
   19.43833160   70.00969696    4.90999985    2.93000007
   19.44277763   70.00969696    4.90999985    2.91000009
   19.44694328   70.79689789    4.90999985    2.93000007
   19.45027924   72.37460327    4.90999985    2.93000007
   19.45333481   70.78510284    4.90999985    2.93000007
   19.45666695   70.89340210    4.90999985    2.93000007
   19.46000099   71.24800110    4.90999985    2.93000007
   19.46250153   74.61329651    4.90999985    2.93000007
   19.46361160   71.89550018    4.90999985    2.93000007
   19.46666718   72.96050262    4.90999985    2.93000007
   19.47000122   70.89450073    4.90999985    2.93000007
   19.47333336   70.62550354    4.90999985    2.93000007
   19.47638893   70.21499634    4.90999985    2.93000007
   19.47972298   70.94029999    4.90999985    2.91000009
   19.48277855   71.13970184    4.90999985    2.91000009
   19.48611069   72.56040192    4.90999985    2.93000007
   19.48944473   73.84269714    4.90999985    2.93000007
   19.49388885   73.84269714    4.90999985    2.93000007
   19.49805641   79.29699707    4.90999985    2.93000007
   19.50138855   73.06330109    4.90999985    2.94000006
   19.50472260   74.97180176    4.90999985    2.93000007
   19.50777817   72.76069641    4.90999985    2.93000007
   19.52750015   73.60169983    4.90999985    2.93000007
   19.52805519   71.03900146    4.90999985    2.93000007
   19.53138924   71.39929962    4.90999985    2.93000007
   19.53444481   69.85260010    4.90999985    2.93000007
   19.53777695   67.67099762    4.90999985    2.93000007
   19.54083252   70.95330048    4.90999985    2.93000007
   19.54527664   70.95330048    4.90999985    2.91000009
   19.54944420   69.74030304    4.90999985    2.91000009
   19.55249977   72.74369812    4.90999985    2.91000009
   19.55583191   69.48370361    4.90999985    2.93000007
   19.55888748   71.29080200    4.90999985    2.91000009
   19.56222153   70.71289825    4.90999985    2.94000006
   19.56555557   72.21849823    4.90999985    2.91000009
   19.56861115   71.35440063    4.90999985    2.91000009
   19.57194519   70.43710327    4.90999985    2.91000009
   19.57527924   70.65640259    4.90999985    2.91000009
   19.57805634   68.76129913    4.90999985    2.91000009
   19.57888985   70.98380280    4.90999985    2.91000009
   19.58194542   69.09680176    4.90999985    2.93000007
   19.58527756   71.99819946    4.90999985    2.93000007
   19.58861160   72.22309875    4.90999985    2.93000007
   19.59166718   75.09390259    4.90999985    2.91000009
   19.59638977   75.09390259    4.90999985    2.91000009
   19.60055542   72.91819763    4.90999985    2.93000007
   19.60361099   71.25000000    4.90999985    2.93000007
   19.60694504   67.51619720    4.90999985    2.93000007
   19.61027908   70.75650024    4.90999985    2.91000009
   19.61333466   72.91329956    4.90999985    2.91000009
   19.61666679   70.84470367    4.90999985    2.91000009
   19.62000084   72.53810120    4.90999985    2.91000009
   19.62305641   75.69899750    4.90999985    2.91000009
   19.62638855   72.74790192    4.90999985    2.91000009
   19.62805557   71.24299622    4.90999985    2.91000009
   19.63000107   71.67769623    4.90999985    2.91000009
   19.63305473   72.96600342    4.90999985    2.91000009
   19.63638878   72.56250000    4.90999985    2.91000009
   19.63972282   74.25669861    4.90999985    2.91000009
   19.64277840   72.41369629    4.90999985    2.91000009
   19.64749908   72.41369629    4.90999985    2.91000009
   19.65166664   72.98040009    4.90999985    2.93000007
   19.65499878   72.50109863    4.90999985    2.91000009
   19.65805435   70.53690338    4.90999985    2.91000009
   19.66138840   73.06250000    4.90999985    2.93000007
   19.66472244   70.98600006    4.90999985    2.91000009
   19.66777802   71.64479828    4.90999985    2.91000009
   19.67111015   74.98930359    4.90999985    2.91000009
   19.67416573   71.39309692    4.90999985    2.93000007
   19.67749977   70.88310242    4.90999985    2.91000009
   19.67805481   71.70140076    4.90999985    2.91000009
   19.68111038   69.82469940    4.90999985    2.91000009
   19.68416595   68.01439667    4.90999985    2.91000009
   19.68750000   71.63150024    4.90999985    2.91000009
   19.69083214   72.66649628    4.90999985    2.91000009
   19.69388771   71.34619904    4.90999985    2.91000009
   19.69861031   71.34619904    4.90999985    2.91000009
   19.70277786   70.87120056    4.90999985    2.91000009
   19.70611191   70.08029938    4.90999985    2.91000009
   19.70944595   72.55359650    4.90999985    2.91000009
   19.71250153   70.78510284    4.90999985    2.91000009
   19.71583366   72.61920166    4.90999985    2.91000009
   19.71916771   73.72229767    4.90999985    2.91000009
   19.72222328   73.76789856    4.90999985    2.91000009
   19.72555542   74.96749878    4.90999985    2.91000009
   19.72805595   73.27429962    4.90999985    2.91000009
   19.72916794   74.04689789    4.90999985    2.91000009
   19.73222351   74.11560059    4.90999985    2.91000009
   19.73555565   72.29920197    4.90999985    2.91000009
   19.73888969   72.75589752    4.90999985    2.91000009
   19.74194527   72.94650269    4.90999985    2.91000009
   19.74527740   70.99579620    4.90999985    2.91000009
   19.75000000   70.99579620    4.90999985    2.91000009
   19.75388908   72.40380096    4.90999985    2.91000009
   19.75722313   74.40350342    4.90999985    2.91000009
   19.76055527   73.81970215    4.90999985    2.91000009
   19.76361084   73.00800323    4.90999985    2.91000009
   19.76694489   70.57800293    4.90999985    2.89000010
   19.77027702   72.11260223    4.90999985    2.91000009
   19.77333260   72.58450317    4.90999985    2.91000009
   19.77666664   71.25170135    4.90999985    2.91000009
   19.77833366   69.70210266    4.90999985    2.91000009
   19.78027725   72.98049927    4.90999985    2.91000009
   19.78333282   70.87940216    4.90999985    2.89000010
   19.78666687   73.78399658    4.90999985    2.89000010
   19.78999901   72.30899811    4.90999985    2.91000009
   19.79305458   71.17079926    4.90999985    2.89000010
   19.79638863   71.53730011    4.90999985    2.89000010
   19.80111122   71.53730011    4.90999985    2.91000009
   19.80527687   72.38050079    4.90999985    2.91000009
   19.80833244   73.50000000    4.90999985    2.89000010
   19.81166649   73.44090271    4.90999985    2.91000009
   19.81499863   73.92449951    4.90999985    2.91000009
   19.81805611   73.31549835    4.90999985    2.89000010
   19.82139015   70.75309753    4.90999985    2.89000010
   19.82472229   71.26200104    4.90999985    2.89000010
   19.82777786   71.63629913    4.90999985    2.89000010
   19.82833481   74.58260345    4.90999985    2.89000010
   19.83139038   72.04329681    4.90999985    2.89000010
   19.83472252   74.08809662    4.90999985    2.89000010
   19.83777809   71.68720245    4.90999985    2.89000010
   19.84111214   74.96019745    4.90999985    2.91000009
   19.84416771   74.28009796    4.90999985    2.89000010
   19.84749985   71.87290192    4.90999985    2.89000010
   19.85222244   71.87290192    4.90999985    2.89000010
   19.85639000   70.16950226    4.90999985    2.91000009
   19.85972214   73.92440033    4.90999985    2.89000010
   19.86277771   71.61199951    4.90999985    2.89000010
   19.86611176   73.05169678    4.90999985    2.89000010
   19.86916733   73.55570221    4.90999985    2.89000010
   19.87249947   73.41290283    4.90999985    2.89000010
   19.87583351   74.61299896    4.90999985    2.89000010
   19.87833405   71.79280090    4.90999985    2.91000009
   19.87944412   70.56970215    4.90999985    2.91000009
   19.88277817   74.73750305    4.90999985    2.89000010
   19.88583374   70.47160339    4.90999985    2.91000009
   19.88916588   70.99620056    4.90999985    2.89000010
   19.89222145   74.04350281    4.90999985    2.89000010
   19.89555550   75.79270172    4.90999985    2.89000010
   19.89888954   74.19740295    4.90999985    2.89000010
   19.90333366   74.19740295    4.90999985    2.89000010
   19.90749931   71.35240173    4.90999985    2.89000010
   19.91083336   73.16979980    4.90999985    2.89000010
   19.91388893   74.36009979    4.90999985    2.89000010
   19.91722107   71.91439819    4.90999985    2.89000010
   19.92055511   74.99629974    4.90999985    2.91000009
   19.92388916   73.10679626    4.90999985    2.89000010
   19.92694473   72.26380157    4.90999985    2.89000010
   19.92833328   76.02719879    4.90999985    2.89000010
   19.93055534   70.94889832    4.90999985    2.89000010
   19.93388748   71.63800049    4.90999985    2.89000010
   19.93694305   71.82759857    4.90999985    2.89000010
   19.94027710   75.54859924    4.90999985    2.89000010
   19.94333267   75.71569824    4.90999985    2.89000010
   19.94666672   74.53269958    4.90999985    2.89000010
   19.95000076   71.90149689    4.90999985    2.89000010
   19.95472336   71.90149689    4.90999985    2.89000010
   19.95861244   73.06159973    4.90999985    2.89000010
   19.96194458   70.42060089    4.90999985    2.89000010
   19.96527863   70.22170258    4.90999985    2.89000010
   19.96833420   73.31549835    4.90999985    2.89000010
   19.97166634   74.09169769    4.90999985    2.89000010
   19.97500038   72.46739960    4.90999985    2.89000010
   19.97805595   73.85540009    4.90999985    2.89000010
   19.97861099   73.06980133    4.90999985    2.89000010
   19.98194504   70.04329681    4.90999985    2.89000010
   19.98500061   76.41230011    4.90999985    2.86999989
   19.98833275   73.73639679    4.90999985    2.86999989
   19.99166679   72.81960297    4.90999985    2.89000010
   19.99472237   72.36309814    4.90999985    2.89000010
   19.99805641   69.94740295    4.90999985    2.86999989
   20.00138855   68.36569977    4.90999985    2.86999989
   20.00583267   68.36569977    4.90999985    2.89000010
   20.01000023   74.61969757    4.90999985    2.89000010
   20.01305580   72.77179718    4.90999985    2.86999989
   20.01638794   73.14990234    4.90999985    2.86999989
   20.01972198   71.10399628    4.90999985    2.86999989
   20.02277756   72.75469971    4.90999985    2.86999989
   20.02611160   69.52570343    4.90999985    2.86999989
   20.02861023   72.10350037    4.90999985    2.86999989
   20.02972221   73.60230255    4.90999985    2.86999989
   20.03277779   70.78649902    4.90999985    2.86999989
   20.03610992   70.55359650    4.90999985    2.89000010
   20.03944397   71.46939850    4.90999985    2.86999989
   20.04249954   72.00920105    4.90999985    2.86999989
   20.04583359   70.35279846    4.90999985    2.86999989
   20.04916573   73.48370361    4.90999985    2.86999989
   20.05222130   71.26409912    4.90999985    2.86999989
   20.05694389   71.26409912    4.90999985    2.86999989
   20.06110954   74.03369904    4.90999985    2.86999989
   20.06444359   70.25759888    4.90999985    2.86999989
   20.06750107   72.03309631    4.90999985    2.86999989
   20.07083511   74.97840118    4.90999985    2.86999989
   20.07389069   70.84629822    4.90999985    2.86999989
   20.07722282   74.64749908    4.90999985    2.86999989
   20.07861137   71.26950073    4.90999985    2.86999989
   20.08083344   71.51090240    4.90999985    2.86999989
   20.08388901   71.96910095    4.90999985    2.86999989
   20.08722305   72.20649719    4.90999985    2.86999989
   20.09055710   73.05110168    4.90999985    2.86999989
   20.09361267   70.91919708    4.90999985    2.89000010
   20.09694481   74.26760101    4.90999985    2.86999989
   20.10027885   73.09649658    4.90999985    2.86999989
   20.10333443   70.69239807    4.90999985    2.86999989
   20.10805511   70.69239807    4.90999985    2.86999989
   20.11222267   72.22000122    4.90999985    2.86999989
   20.11555672   72.59120178    4.90999985    2.86999989
   20.11861038   73.15409851    4.90999985    2.86999989
   20.12194443   71.91059875    4.90999985    2.86999989
   20.12527847   69.50450134    4.90999985    2.86999989
   20.12861061   71.52850342    4.90999985    2.84999990
   20.12888908   72.16660309    4.90999985    2.86999989
   20.13222313   72.98629761    4.90999985    2.86999989
   20.13555527   74.30130005    4.90999985    2.86999989
   20.13861084   73.66120148    4.90999985    2.86999989
   20.14194489   72.28209686    4.90999985    2.84999990
   20.14527702   69.84079742    4.90999985    2.86999989
   20.14833260   72.42829895    4.90999985    2.86999989
   20.15166664   74.29989624    4.90999985    2.86999989
   20.15499878   73.16439819    4.90999985    2.86999989
   20.15944481   73.16439819    4.90999985    2.86999989
   20.16333389   71.83779907    4.90999985    2.86999989
   20.16666603   72.31590271    4.90999985    2.86999989
   20.17000008   71.40730286    4.90999985    2.86999989
   20.17305565   72.07099915    4.90999985    2.86999989
   20.17638779   75.90959930    4.90999985    2.86999989
   20.17888832   72.16850281    4.90999985    2.86999989
   20.18000031   73.03739929    4.90999985    2.86999989
   20.18333244   73.55220032    4.90999985    2.86999989
   20.18638802   72.38120270    4.90999985    2.86999989
   20.18972206   73.37439728    4.90999985    2.86999989
   20.19305420   72.26180267    4.90999985    2.86999989
   20.19610977   73.42939758    4.90999985    2.84999990
   20.19944382   73.38569641    4.90999985    2.86999989
   20.20277786   73.37969971    4.90999985    2.86999989
   20.20583344   70.42369843    4.90999985    2.86999989
   20.21055603   70.42369843    4.90999985    2.86999989
   20.21472359   72.17130280    4.90999985    2.84999990
   20.21777916   72.25789642    4.90999985    2.84999990
   20.22111130   70.78289795    4.90999985    2.86999989
   20.22444534   72.28050232    4.90999985    2.84999990
   20.22750092   72.25309753    4.90999985    2.86999989
   20.22916794   73.47019958    4.90999985    2.86999989
   20.23111153   71.68789673    4.90999985    2.86999989
   20.23444557   73.52359772    4.90999985    2.86999989
   20.23750114   74.09549713    4.90999985    2.86999989
   20.24083328   70.12010193    4.90999985    2.84999990
   20.24416733   70.77529907    4.90999985    2.84999990
   20.24722290   70.60099792    4.90999985    2.84999990
   20.25055504   72.28749847    4.90999985    2.84999990
   20.25388908   71.00820160    4.90999985    2.84999990
   20.25694466   73.28060150    4.90999985    2.86999989
   20.26166725   73.28060150    4.90999985    2.84999990
   20.26583290   74.53790283    4.90999985    2.86999989
   20.26916695   73.36170197    4.90999985    2.86999989
   20.27222252   72.89640045    4.90999985    2.84999990
   20.27555466   71.16480255    4.90999985    2.84999990
   20.27861023   72.54560089    4.90999985    2.84999990
   20.27916718   71.65619659    4.90999985    2.84999990
   20.28249931   71.87419891    4.90999985    2.84999990
   20.28583336   71.60230255    4.90999985    2.86999989
   20.28888893   71.91899872    4.90999985    2.84999990
   20.29222107   73.10359955    4.90999985    2.84999990
   20.29555511   71.44360352    4.90999985    2.84999990
   20.29861069   71.74849701    4.90999985    2.84999990
   20.30194283   75.77780151    4.90999985    2.86999989
   20.30499840   71.91249847    4.90999985    2.84999990
   20.30833244   70.90499878    4.90999985    2.84999990
   20.31277657   70.90499878    4.90999985    2.84999990
   20.31694603   73.72470093    4.90999985    2.86999989
   20.32027817   74.55580139    4.90999985    2.84999990
   20.33388901   72.65840149    4.90999985    2.84999990
   20.35861206   76.33380127    4.90999985    2.84999990
   20.36194420   74.59140015    4.90999985    2.84999990
   20.36499977   74.80339813    4.90999985    2.84999990
   20.36833382   71.96340179    4.90999985    2.84999990
   20.37166595   73.63719940    4.90999985    2.82999992
   20.38638878   73.73999786    4.90999985    2.82999992
   20.38944435   70.27610016    4.90999985    2.84999990
   20.39277840   70.37110138    4.90999985    2.82999992
   20.39611053   72.94539642    4.90999985    2.84999990
   20.39916611   71.36630249    4.90999985    2.82999992
   20.40250015   71.84420013    4.90999985    2.82999992
   20.40555573   74.79380035    4.90999985    2.82999992
   20.40888786   73.56569672    4.90999985    2.84999990
   20.41499901   73.56569672    4.90999985    2.82999992
   20.41888809   72.28420258    4.90999985    2.82999992
   20.42222214   75.37500000    4.90999985    2.82999992
   20.42555428   71.71530151    4.90999985    2.84999990
   20.42860985   70.49250031    4.90999985    2.82999992
   20.43194389   72.51830292    4.90999985    2.82999992
   20.43527603   72.11409760    4.90999985    2.82999992
   20.43638802   76.09670258    4.90999985    2.82999992
   20.43861008   73.47070313    4.90999985    2.84999990
   20.44194412   74.36979675    4.90999985    2.84999990
   20.44527626   71.74710083    4.90999985    2.82999992
   20.44833183   75.25420380    4.90999985    2.82999992
   20.45166779   77.80680084    4.90999985    2.82999992
   20.45472336   72.53939819    4.90999985    2.82999992
   20.45805550   72.30930328    4.90999985    2.82999992
   20.46138954   72.48680115    4.90999985    2.82999992
   20.46611214   72.48680115    4.90999985    2.82999992
   20.47027779   74.07240295    4.90999985    2.82999992
   20.47333336   75.06960297    4.90999985    2.82999992
   20.47666740   72.12039948    4.90999985    2.82999992
   20.48000145   71.41600037    4.90999985    2.82999992
   20.48305511   73.86070251    4.90999985    2.82999992
   20.48638916   72.53669739    4.90999985    2.82999992
   20.48666763   74.06199646    4.90999985    2.82999992
   20.48999977   72.45230103    4.90999985    2.82999992
   20.49333382   71.67710114    4.90999985    2.82999992
   20.49638939   74.57700348    4.90999985    2.82999992
   20.49972153   73.69930267    4.90999985    2.82999992
   20.50277710   72.69850159    4.90999985    2.82999992
   20.50611115   72.00759888    4.90999985    2.82999992
   20.50944519   73.24859619    4.90999985    2.82999992
   20.51250076   73.15419769    4.90999985    2.82999992
   20.51722145   73.15419769    4.90999985    2.82999992
   20.52138901   73.38210297    4.90999985    2.82999992
   20.52472115   75.27519989    4.90999985    2.82999992
   20.52777672   75.65679932    4.90999985    2.82999992
   20.53111076   77.32859802    4.90999985    2.82999992
   20.53416634   74.55699921    4.90999985    2.80999994
   20.53638840   73.15029907    4.90999985    2.80999994
   20.53777695   73.56710052    4.90999985    2.82999992
   20.54111099   73.86599731    4.90999985    2.80999994
   20.54444313   73.81469727    4.90999985    2.82999992
   20.54749870   75.09780121    4.90999985    2.82999992
   20.55083275   72.26869965    4.90999985    2.80999994
   20.55388832   70.74669647    4.90999985    2.80999994
   20.55722237   72.00540161    4.90999985    2.80999994
   20.56055450   71.09529877    4.90999985    2.80999994
   20.56361008   78.08709717    4.90999985    2.80999994
   20.56833458   78.08709717    4.90999985    2.80999994
   20.57250023   75.03070068    4.90999985    2.80999994
   20.57583427   71.47460175    4.90999985    2.82999992
   20.57888985   73.72949982    4.90999985    2.82999992
   20.58222389   75.81349945    4.90999985    2.82999992
   20.58555603   75.11309814    4.90999985    2.80999994
   20.58638954   72.93479919    4.90999985    2.82999992
   20.58889008   72.43460083    4.90999985    2.80999994
   20.59222221   70.68900299    4.90999985    2.80999994
   20.59555626   73.86930084    4.90999985    2.80999994
   20.59861183   76.36799622    4.90999985    2.82999992
   20.60194397   73.40979767    4.90999985    2.80999994
   20.60527802   75.74500275    4.90999985    2.80999994
   20.60833359   75.11289978    4.90999985    2.80999994
   20.61166763   74.64330292    4.90999985    2.80999994
   20.61472321   74.46649933    4.90999985    2.80999994
   20.61972237   74.46649933    4.90999985    2.80999994
   20.62361145   73.06379700    4.90999985    2.80999994
   20.62694550   74.26660156    4.90999985    2.80999994
   20.63027763   75.75980377    4.90999985    2.80999994
   20.63333321   70.98709869    4.90999985    2.78999996
   20.63638878   72.81130219    4.90999985    2.80999994
   20.63694382   75.56330109    4.90999985    2.80999994
   20.64027786   71.68730164    4.90999985    2.80999994
   20.64361191   72.62159729    4.90999985    2.80999994
   20.64666748   71.45600128    4.90999985    2.80999994
   20.64999962   73.76770020    4.90999985    2.80999994
   20.65333366   73.76300049    4.90999985    2.80999994
   20.65638924   73.29209900    4.90999985    2.80999994
   20.65972137   75.13780212    4.90999985    2.80999994
   20.66277695   73.99069977    4.90999985    2.80999994
   20.66611099   75.89820099    4.90999985    2.78999996
   20.67083359   75.89820099    4.90999985    2.78999996
   20.67499924   73.43859863    4.90999985    2.80999994
   20.67805481   75.40180206    4.90999985    2.80999994
   20.68138885   75.91429901    4.90999985    2.78999996
   20.68472099   72.98229980    4.90999985    2.80999994
   20.68638802   72.75509644    4.90999985    2.80999994
   20.68833160   75.14869690    4.90999985    2.80999994
   20.69138718   73.15180206    4.90999985    2.80999994
   20.69472122   73.24939728    4.90999985    2.80999994
   20.69777679   73.05449677    4.90999985    2.78999996
   20.70111275   75.65360260    4.90999985    2.80999994
   20.70444489   74.97760010    4.90999985    2.78999996
   20.70750046   73.19789886    4.90999985    2.80999994
   20.71083450   74.43270111    4.90999985    2.78999996
   20.71416664   74.26989746    4.90999985    2.78999996
   20.71722221   75.52490234    4.90999985    2.78999996
   20.72194481   75.52490234    4.90999985    2.78999996
   20.72611237   73.31300354    4.90999985    2.78999996
   20.72944450   74.96279907    4.90999985    2.78999996
   20.73250008   73.80139923    4.90999985    2.76999998
   20.73583412   77.47910309    4.90999985    2.78999996
   20.73638916   78.21399689    4.90999985    2.78999996
   20.73944473   75.10189819    4.90999985    2.78999996
   20.74250031   76.43219757    4.90999985    2.76999998
   20.74583435   75.21189880    4.90999985    2.78999996
   20.74916649   73.59120178    4.90999985    2.78999996
   20.75222206   76.69450378    4.90999985    2.78999996
   20.75555611   76.72489929    4.90999985    2.78999996
   20.75861168   74.33309937    4.90999985    2.78999996
   20.76194382   75.57399750    4.90999985    2.78999996
   20.76527786   73.18119812    4.90999985    2.76999998
   20.76833344   73.72129822    4.90999985    2.76999998
   20.77305603   73.72129822    4.90999985    2.76999998
   20.77722168   75.94750214    4.90999985    2.76999998
   20.78055573   74.09390259    4.90999985    2.76999998
   20.78361130   73.25050354    4.90999985    2.76999998
   20.78638840   72.18779755    4.90999985    2.78999996
   20.78750038   76.85559845    4.90999985    2.78999996
   20.79055595   75.88649750    4.90999985    2.78999996
   20.79388809   76.49849701    4.90999985    2.78999996
   20.79694366   74.60919952    4.90999985    2.76999998
   20.80027771   78.33329773    4.90999985    2.76999998
   20.80360985   74.55979919    4.90999985    2.78999996
   20.80666542   75.16919708    4.90999985    2.76999998
   20.80999947   75.54949951    4.90999985    2.76999998
   20.81333351   74.95379639    4.90999985    2.76999998
   20.81638718   75.76490021    4.90999985    2.76999998
   20.81972313   76.73829651    4.90999985    2.76999998
   20.82416725   76.73829651    4.90999985    2.78999996
   20.82833481   75.35769653    4.90999985    2.76999998
   20.83166695   76.85160065    4.90999985    2.76999998
   20.83500099   79.33509827    4.90999985    2.76999998
   20.83638954   78.51830292    4.90999985    2.75000000
   20.83861160   74.50489807    4.90999985    2.76999998
   20.84166718   70.93879700    4.90999985    2.76999998
   20.84500122   74.15920258    4.90999985    2.76999998
   20.84833336   72.78350067    4.90999985    2.76999998
   20.85138893   73.88099670    4.90999985    2.76999998
   20.85472298   72.67759705    4.90999985    2.76999998
   20.85777855   73.32219696    4.90999985    2.75000000
   20.86111069   78.60269928    4.90999985    2.76999998
   20.86444473   76.33779907    4.90999985    2.75000000
   20.86777878   76.55989838    4.90999985    2.76999998
   20.87083435   73.48059845    4.90999985    2.75000000
   20.87555504   73.48059845    4.90999985    2.76999998
   20.87972260   79.82890320    4.90999985    2.76999998
   20.88277817   74.99729919    4.90999985    2.76999998
   20.88611031   74.48650360    4.90999985    2.75000000
   20.88666725   75.01319885    4.90999985    2.75000000
   20.88944435   74.08999634    4.90999985    2.75000000
   20.89277840   74.74980164    4.90999985    2.75000000
   20.89611053   75.53949738    4.90999985    2.75000000
   20.89916611   74.70179749    4.90999985    2.75000000
   20.90250015   79.39939880    4.90999985    2.76999998
   20.90583229   75.90889740    4.90999985    2.76999998
   20.90888786   74.48970032    4.90999985    2.75000000
   20.91222191   73.49530029    4.90999985    2.75000000
   20.91527748   74.42030334    4.90999985    2.75000000
   20.91860962   75.74829865    4.90999985    2.75000000
   20.92194366   76.76159668    4.90999985    2.75000000
   20.92666626   76.76159668    4.90999985    2.75000000
   20.93083191   74.65339661    4.90999985    2.75000000
   20.93388748   75.53119659    4.90999985    2.75000000
   20.93666649   72.97769928    4.90999985    2.75000000
   20.93750000   76.06069946    4.90999985    2.75000000
   20.94083214   74.08159637    4.90999985    2.75000000
   20.94416618   77.33029938    4.90999985    2.75000000
   20.94722176   72.76560211    4.90999985    2.75000000
   20.95055580   74.61730194    4.90999985    2.75000000
   20.95388985   72.21199799    4.90999985    2.75000000
   20.95694542   74.57479858    4.90999985    2.75000000
   20.96027946   74.57309723    4.90999985    2.75000000
   20.96333504   75.50830078    4.90999985    2.75000000
   20.96666718   73.09860229    4.90999985    2.75000000
   20.97000122   74.82070160    4.90999985    2.75000000
   20.97305679   76.58699799    4.90999985    2.73000002
   20.97777748   76.58699799    4.90999985    2.73000002
   20.98194504   76.02539825    4.90999985    2.75000000
   20.98527718   73.38099670    4.90999985    2.73000002
   20.98666763   78.73709869    4.90999985    2.73000002
   20.98888969   76.68450165    4.90999985    2.73000002
   20.99194527   77.20200348    4.90999985    2.75000000
   20.99527740   75.46269989    4.90999985    2.73000002
   20.99833298   76.80619812    4.90999985    2.73000002
   21.00166702   77.09410095    4.90999985    2.75000000
   21.00499916   76.55439758    4.90999985    2.75000000
   21.00805473   74.87889862    4.90999985    2.73000002
   21.01138878   73.85980225    4.90999985    2.73000002
   21.01472282   74.82219696    4.90999985    2.73000002
   21.01777840   75.13210297    4.90999985    2.73000002
   21.02111053   75.11479950    4.90999985    2.73000002
   21.02416611   73.61139679    4.90999985    2.75000000
   21.02888870   73.61139679    4.90999985    2.73000002
   21.03305435   73.85050201    4.90999985    2.75000000
   21.03638840   75.99500275    4.90999985    2.75000000
   21.03694344   73.81980133    4.90999985    2.75000000
   21.04027748   74.70529938    4.90999985    2.73000002
   21.04333305   75.54789734    4.90999985    2.73000002
   21.04666710   77.49420166    4.90999985    2.73000002
   21.04972076   76.23300171    4.90999985    2.73000002
   21.05305481   78.34329987    4.90999985    2.73000002
   21.05638885   78.28929901    4.90999985    2.73000002
   21.05944443   74.26950073    4.90999985    2.73000002
   21.06277657   72.81439972    4.90999985    2.73000002
   21.06611061   74.29679871    4.90999985    2.73000002
   21.06916809   74.99600220    4.90999985    2.73000002
   21.07250023   74.89630127    4.90999985    2.71000004
   21.07555580   73.53260040    4.90999985    2.71000004
   21.08027840   73.53260040    4.90999985    2.73000002
   21.08416748   75.26290131    4.90999985    2.71000004
   21.08694458   79.85990143    4.90999985    2.71000004
   21.08805656   77.38639832    4.90999985    2.71000004
   21.09111214   75.36119843    4.90999985    2.71000004
   21.09444427   75.26020050    4.90999985    2.71000004
   21.09749985   76.12310028    4.90999985    2.71000004
   21.10083389   76.27469635    4.90999985    2.71000004
   21.10416794   74.63999939    4.90999985    2.71000004
   21.10722351   77.96350098    4.90999985    2.71000004
   21.11055565   76.15229797    4.90999985    2.71000004
   21.11361122   76.74449921    4.90999985    2.71000004
   21.11694527   77.53269958    4.90999985    2.71000004
   21.12027740   76.36589813    4.90999985    2.71000004
   21.12333298   75.14659882    4.90999985    2.71000004
   21.12666702   77.75479889    4.90999985    2.69000006
   21.13138962   77.75479889    4.90999985    2.71000004
   21.13555527   81.14219666    4.90999985    2.69000006
   21.13694382   76.36180115    4.90999985    2.69000006
   21.13916588   74.65689850    4.90999985    2.71000004
   21.14222145   74.96710205    4.90999985    2.71000004
   21.14555550   76.29319763    4.90999985    2.71000004
   21.14861107   77.97480011    4.90999985    2.71000004
   21.15194321   76.43699646    4.90999985    2.71000004
   21.15527725   74.62129974    4.90999985    2.71000004
   21.15833282   75.26560211    4.90999985    2.71000004
   21.16166687   75.48609924    4.90999985    2.69000006
   21.16499901   76.11229706    4.90999985    2.69000006
   21.16805458   77.46289825    4.90999985    2.71000004
   21.17138863   78.60839844    4.90999985    2.69000006
   21.17444420   77.50520325    4.90999985    2.71000004
   21.17777634   79.42189789    4.90999985    2.69000006
   21.18249893   79.42189789    4.90999985    2.69000006
   21.18666649   74.87400055    4.90999985    2.71000004
   21.18722153   76.98480225    4.90999985    2.71000004
   21.19055557   75.95829773    4.90999985    2.69000006
   21.19361115   74.25710297    4.90999985    2.69000006
   21.19694328   75.38539886    4.90999985    2.69000006
   21.20000076   74.56250000    4.90999985    2.69000006
   21.20333481   74.99530029    4.90999985    2.69000006
   21.20666695   75.59040070    4.90999985    2.69000006
   21.20972252   72.98729706    4.90999985    2.69000006
   21.21305656   79.18460083    4.90999985    2.69000006
   21.21638870   76.27230072    4.90999985    2.69000006
   21.21944427   74.72470093    4.90999985    2.69000006
   21.22277832   75.81079865    4.90999985    2.69000006
   21.22611237   75.39360046    4.90999985    2.69000006
   21.22916794   76.26180267    4.90999985    2.69000006
   21.23361206   76.26180267    4.90999985    2.69000006
   21.23777771   74.61170197    4.90999985    2.69000006
   21.24111176   74.42769623    4.90999985    2.67000008
   21.24416733   76.15110016    4.90999985    2.69000006
   21.24749947   78.18789673    4.90999985    2.67000008
   21.25083351   80.81230164    4.90999985    2.69000006
   21.25388908   77.67720032    4.90999985    2.69000006
   21.25722313   76.92569733    4.90999985    2.69000006
   21.26055527   78.71150208    4.90999985    2.69000006
   21.26361084   74.99780273    4.90999985    2.67000008
   21.26694489   75.51119995    4.90999985    2.67000008
   21.27000046   76.60310364    4.90999985    2.67000008
   21.27333260   73.77570343    4.90999985    2.67000008
   21.27666664   79.72779846    4.90999985    2.67000008
   21.27972221   76.32920074    4.90999985    2.67000008
   21.28499985   76.32920074    4.90999985    2.67000008
   21.28888893   75.53939819    4.90999985    2.67000008
   21.29222107   79.93260193    4.90999985    2.67000008
   21.29555511   78.39260101    4.90999985    2.67000008
   21.29861069   79.09909821    4.90999985    2.67000008
   21.30194283   76.47019958    4.90999985    2.67000008
   21.30527687   77.46959686    4.90999985    2.67000008
   21.30833244   76.49890137    4.90999985    2.67000008
   21.31166649   74.46880341    4.90999985    2.67000008
   21.31472206   75.71890259    4.90999985    2.67000008
   21.31805611   74.81670380    4.90999985    2.67000008
   21.32139015   77.32240295    4.90999985    2.67000008
   21.32444572   78.13169861    4.90999985    2.67000008
   21.32777786   75.80220032    4.90999985    2.66000009
   21.33111191   75.75119781    4.90999985    2.67000008
   21.33611107   75.75119781    4.90999985    2.67000008
   21.34027863   75.98359680    4.90999985    2.66000009
   21.34333420   77.67680359    4.90999985    2.66000009
   21.34666824   76.62129974    4.90999985    2.66000009
   21.35000038   81.06210327    4.90999985    2.66000009
   21.35305595   79.50579834    4.90999985    2.66000009
   21.35639000   80.71739960    4.90999985    2.66000009
   21.35944557   78.55809784    4.90999985    2.66000009
   21.36277771   77.80719757    4.90999985    2.66000009
   21.36611176   77.42769623    4.90999985    2.66000009
   21.36916733   75.53710175    4.90999985    2.66000009
   21.37249947   75.67739868    4.90999985    2.66000009
   21.37583351   74.78199768    4.90999985    2.66000009
   21.37888908   75.27490234    4.90999985    2.66000009
   21.38222313   77.24880219    4.90999985    2.64000010
   21.40361023   76.06250000    4.90999985    2.64000010
   21.40416718   78.51490021    4.90999985    2.64000010
   21.40722275   78.88749695    4.90999985    2.66000009
   21.41055489   78.09809875    4.90999985    2.66000009
   21.41388893   76.21469879    4.90999985    2.64000010
   21.41694450   77.40309906    4.90999985    2.64000010
   21.42027664   75.53900146    4.90999985    2.64000010
   21.42361069   78.11489868    4.90999985    2.64000010
   21.42666626   76.84130096    4.90999985    2.64000010
   21.43000031   80.84359741    4.90999985    2.64000010
   21.43305397   79.66919708    4.90999985    2.64000010
   21.43861008   79.66919708    4.90999985    2.61999989
   21.44277763   75.63349915    4.90999985    2.61999989
   21.44583321   81.95549774    4.90999985    2.64000010
   21.44916534   78.54250336    4.90999985    2.64000010
   21.45250130   78.95760345    4.90999985    2.64000010
   21.45361137   74.98850250    4.90999985    2.61999989
   21.45611191   75.26660156    4.90999985    2.61999989
   21.45916748   76.64980316    4.90999985    2.61999989
   21.46250153   76.08529663    4.90999985    2.64000010
   21.46555710   78.19770050    4.90999985    2.64000010
   21.46888924   76.15480042    4.90999985    2.64000010
   21.47222328   77.98040009    4.90999985    2.64000010
   21.47527885   76.78109741    4.90999985    2.61999989
   21.47861099   77.12850189    4.90999985    2.61999989
   21.48166656   76.21829987    4.90999985    2.61999989
   21.48500061   77.35469818    4.90999985    2.61999989
   21.48972321   77.35469818    4.90999985    2.61999989
   21.49388885   77.80760193    4.90999985    2.59999990
   21.49694443   78.02850342    4.90999985    2.61999989
   21.50027847   77.63510132    4.90999985    2.61999989
   21.50361061   76.96399689    4.90999985    2.61999989
   21.50416756   78.30909729    4.90999985    2.59999990
   21.50722313   78.44899750    4.90999985    2.59999990
   21.51055527   75.35510254    4.90999985    2.59999990
   21.51361084   76.02799988    4.90999985    2.61999989
   21.51694489   79.30329895    4.90999985    2.59999990
   21.52027702   76.71389771    4.90999985    2.59999990
   21.52333260   77.87290192    4.90999985    2.59999990
   21.52666664   75.39440155    4.90999985    2.59999990
   21.52972221   73.64749908    4.90999985    2.59999990
   21.53305435   78.87909698    4.90999985    2.61999989
   21.53638840   84.16490173    4.90999985    2.59999990
   21.54083252   84.16490173    4.90999985    2.59999990
   21.54500008   78.10440063    4.90999985    2.57999992
   21.54833221   76.50260162    4.90999985    2.57999992
   21.55138779   75.74600220    4.90999985    2.57999992
   21.55360985   77.10160065    4.90999985    2.57999992
   21.55527687   82.05319977    4.90999985    2.57999992
   21.55833244   79.58200073    4.90999985    2.57999992
   21.56166649   77.66680145    4.90999985    2.55999994
   21.56472206   78.02300262    4.90999985    2.55999994
   21.56805611   77.65679932    4.90999985    2.55999994
   21.57139015   78.13500214    4.90999985    2.55999994
   21.57444572   80.91840363    4.90999985    2.55999994
   21.57777786   80.28019714    4.90999985    2.55999994
   21.58111191   81.38469696    4.90999985    2.55999994
   21.58416748   76.48860168    4.90999985    2.53999996
   21.58750153   81.44879913    4.90999985    2.53999996
   21.59194565   81.44879913    4.90999985    2.53999996
   21.59611130   75.69819641    4.90999985    2.53999996
   21.59944534   81.53269958    4.90999985    2.57999992
   21.60277748   76.67169952    4.90999985    2.57999992
   21.60361099   79.74490356    4.90999985    2.57999992
   21.60639000   79.99780273    4.90999985    2.57999992
   21.60944557   81.72570038    4.90999985    2.57999992
   21.61277771   80.09259796    4.90999985    2.57999992
   21.61583328   82.10250092    4.90999985    2.57999992
   21.61916733   78.97899628    4.90999985    2.55999994
   21.62249947   78.30819702    4.90999985    2.57999992
   21.62555504   77.13909912    4.90999985    2.55999994
   21.62888908   77.15029907    4.90999985    2.57999992
   21.63222313   78.48739624    4.90999985    2.55999994
   21.63527679   78.63839722    4.90999985    2.55999994
   21.63861084   80.71640015    4.90999985    2.55999994
   21.64333344   80.71640015    4.90999985    2.55999994
   21.64749908   79.31790161    4.90999985    2.55999994
   21.65055466   82.60739899    4.90999985    2.55999994
   21.65388870   79.55740356    4.90999985    2.55999994
   21.65444374   82.08660126    4.90999985    2.55999994
   21.65749931   80.04499817    4.90999985    2.53999996
   21.66083336   81.20300293    4.90999985    2.55999994
   21.66388893   81.33059692    4.90999985    2.55999994
   21.66722107   80.08039856    4.90999985    2.53999996
   21.67055511   82.95890045    4.90999985    2.55999994
   21.67361069   77.74549866    4.90999985    2.55999994
   21.67694473   81.01049805    4.90999985    2.55999994
   21.68000031   81.17189789    4.90999985    2.53999996
   21.68333244   80.19149780    4.90999985    2.55999994
   21.68638802   78.37599945    4.90999985    2.53999996
   21.68972206   78.31900024    4.90999985    2.55999994
   21.69444275   78.31900024    4.90999985    2.53999996
   21.69861031   78.56739807    4.90999985    2.53999996
   21.70194435   77.67960358    4.90999985    2.53999996
   21.70388985   75.55220032    4.90999985    2.53999996
   21.70555687   77.76409912    4.90999985    2.53999996
   21.70861244   77.09970093    4.90999985    2.53999996
   21.71194458   75.81099701    4.90999985    2.53999996
   21.71500015   80.53990173    4.90999985    2.53999996
   21.71833420   80.10859680    4.90999985    2.51999998
   21.72166634   79.53500366    4.90999985    2.53999996
   21.72472191   80.61190033    4.90999985    2.53999996
   21.72805595   78.28029633    4.90999985    2.51999998
   21.73111153   83.19979858    4.90999985    2.51999998
   21.73444557   84.01450348    4.90999985    2.53999996
   21.73750114   80.01909637    4.90999985    2.51999998
   21.74083328   77.96820068    4.90999985    2.51999998
   21.74583435   77.96820068    4.90999985    2.53999996
   21.74972153   83.66269684    4.90999985    2.51999998
   21.75305557   79.19349670    4.90999985    2.51999998
   21.75388908   78.89820099    4.90999985    2.51999998
   21.75666618   82.22859955    4.90999985    2.51999998
   21.75972176   79.70269775    4.90999985    2.51999998
   21.76305580   78.32980347    4.90999985    2.51999998
   21.76611137   81.79000092    4.90999985    2.50000000
   21.76944351   80.69460297    4.90999985    2.50000000
   21.77277756   79.51779938    4.90999985    2.50000000
   21.77583313   79.29129791    4.90999985    2.50000000
   21.77916718   78.80380249    4.90999985    2.50000000
   21.78249931   78.37380219    4.90999985    2.51999998
   21.78555489   78.22109985    4.90999985    2.51999998
   21.78888893   83.16519928    4.90999985    2.50000000
   21.79194450   79.99929810    4.90999985    2.50000000
   21.79694366   79.99929810    4.90999985    2.50000000
