    HOUR (UT)   FLARE FACTOR    SKY TESTER    SUN TESTER
    0.00305556   -1.00000000   -1.00000000   -1.00000000
    0.14972223   -1.00000000   -1.00000000   -1.00000000
   11.15499973   -1.00000000   -1.00000000   -1.00000000
   11.18083382  159.31700134    0.00000000    0.00000000
   11.18472195  120.69100189    0.00000000    0.00000000
   11.18861103   81.52829742    0.00000000    0.00000000
   11.19250011   83.31510162    0.00000000    0.00000000
   11.19638920  141.04200745    0.00000000    0.00000000
   11.20111084  141.04200745    0.00000000    0.00000000
   11.20527744   89.94570160    0.00000000    0.00000000
   11.20833302   76.81870270    0.00000000    0.00000000
   11.21166611   87.38639832    0.00000000    0.00000000
   11.21361065  107.08799744    0.00000000    0.00000000
   11.21527767  138.60499573    0.00000000    0.00000000
   11.21861076  184.95500183    0.00000000    0.00000000
   11.22194386  118.93099976    0.00000000    0.00000000
   11.22499943   92.97959900    0.00000000    0.00000000
   11.22833252   75.07440186    0.00000000    0.00000000
   11.23138809   98.00180054    0.00000000    0.00000000
   11.23472214  138.73599243    0.00000000    0.00000000
   11.23805618  152.15499878    0.00000000    0.00000000
   11.24333382  152.15499878    0.00000000    0.00000000
   11.24750042   86.22059631    0.00000000    0.00000000
   11.25055599   85.83390045    0.00000000    0.00000000
   11.25388908   84.91179657    0.00000000    0.00000000
   11.25722218   88.27850342    0.00000000    0.00000000
   11.26027775   88.20989990    0.00000000    0.00000000
   11.26361084   84.56759644    0.00000000    0.00000000
   11.26666641   88.29679871    0.00000000    0.00000000
   11.26999950   91.77790070    0.00000000    0.00000000
   11.27333355   85.51149750    0.00000000    0.00000000
   11.27638817   88.63259888    0.00000000    0.00000000
   11.27972221   89.42089844    0.00000000    0.00000000
   11.28027725   81.81420135    0.00000000    0.00000000
   11.28611183   81.81420135    0.00000000    0.00000000
   11.29027843   94.27500153    0.00000000    0.00000000
   11.29361153   88.79889679    0.00000000    0.00000000
   11.29666710  103.93399811    0.00000000    0.00000000
   11.30000019   90.12190247    0.00000000    0.00000000
   11.30305576  101.30999756    0.00000000    0.00000000
   11.30638885   84.62850189    0.00000000    0.00000000
   11.33916664   85.63330078    0.00000000    0.00000000
   11.34249973   85.45149994    0.00000000    0.00000000
   11.34555531   81.63539886    0.00000000    0.00000000
   11.34888840   82.26560211    0.00000000    0.00000000
   11.35194492  151.58900452    0.00000000    0.00000000
   11.35527802  147.55599976    0.00000000    0.00000000
   11.35944462  147.55599976    0.00000000    0.00000000
   11.36361122  151.59399414    0.00000000    0.00000000
   11.36666679   -1.00000000    0.00000000    0.00000000
   11.36999989  106.28700256    0.00000000    0.00000000
   11.37250042  165.08500671    0.00000000    0.00000000
   11.37361145  157.19299316    0.00000000    0.00000000
   11.37694454  144.47000122    0.00000000    0.00000000
   11.38000011  138.18499756    0.00000000    0.00000000
   11.38333321  153.98300171    0.00000000    0.00000000
   11.38666630  137.97300720    0.00000000    0.00000000
   11.38972187  140.72900391    0.00000000    0.00000000
   11.39305496  145.41999817    0.00000000    0.00000000
   11.39638901  137.15100098    0.00000000    0.00000000
   11.40222168  137.15100098    0.00000000    0.00000000
   11.40638828  136.18699646    0.00000000    0.00000000
   11.40972137  163.94599915    0.00000000    0.00000000
   11.41277695  141.79499817    0.00000000    0.00000000
   11.41611099  144.99400330    0.00000000    0.00000000
   11.41944504  144.23800659    0.00000000    0.00000000
   11.42250061  152.41700745    0.00000000    0.00000000
   11.42583370  143.75799561    0.00000000    0.00000000
   11.42888927  150.37100220    0.00000000    0.00000000
   11.43222237  145.38600159    0.00000000    0.00000000
   11.43555546  141.17500305    0.00000000    0.00000000
   11.43861103  142.73199463    0.00000000    0.00000000
   11.43916702  152.10499573    0.00000000    0.00000000
   11.44499969  152.10499573    0.00000000    0.00000000
   11.44916630  148.93099976    0.00000000    0.00000000
   11.45249939  146.27600098    0.00000000    0.00000000
   11.45583344  145.05999756    0.00000000    0.00000000
   11.45888901  152.37600708    0.00000000    0.00000000
   11.46222210  170.54899597    0.00000000    0.00000000
   11.46527767  149.81100464    0.00000000    0.00000000
   11.46861076  153.99200439    0.00000000    0.00000000
   11.47194386  153.58299255    0.00000000    0.00000000
   11.47249985  146.04699707    0.00000000    0.00000000
   11.47555542  147.28399658    0.00000000    0.00000000
   11.47861099  167.97000122    0.00000000    0.00000000
   11.48194408  154.17799377    0.00000000    0.00000000
   11.48805618  154.17799377    0.00000000    0.00000000
   11.49222279  165.97700500    0.00000000    0.00000000
   11.49527836  174.82000732    0.00000000    0.00000000
   11.49861145  148.30999756    0.00000000    0.00000000
   11.50166702  163.71200562    0.00000000    0.00000000
   11.50500011  160.98500061    0.00000000    0.00000000
   11.50583363  158.79200745    0.00000000    0.00000000
   11.50861073  167.07800293    0.00000000    0.00000000
   11.51166630  151.26499939    0.00000000    0.00000000
   11.51500034  158.58299255    0.00000000    0.00000000
   11.51833344  167.53100586    0.00000000    0.00000000
   11.52138901  188.18400574    0.00000000    0.00000000
   11.52472210  201.60899353    0.00000000    0.00000000
   11.53083324  201.60899353    0.00000000    0.00000000
   11.53500080  256.24700928    0.00000000    0.00000000
   11.53805637  222.16200256    0.00000000    0.00000000
   11.53916740  265.53799438    0.00000000    0.00000000
   11.54194450  251.32800293    0.00000000    0.00000000
   11.54527855  284.58898926    0.00000000    0.00000000
   11.54833412  220.52999878    0.00000000    0.00000000
   11.55166721  274.79400635    0.00000000    0.00000000
   11.55472279  226.05900574    0.00000000    0.00000000
   11.55805588  213.78300476    0.00000000    0.00000000
   11.56138897  266.97198486    0.00000000    0.00000000
   11.56472206  254.07699585    0.00000000    0.00000000
   11.56777763  231.43600464    0.00000000    0.00000000
   11.57361126  231.43600464    0.00000000    0.00000000
   11.57777786  230.92300415    0.00000000    0.00000000
   11.58111095  221.18699646    0.00000000    0.00000000
   11.58416653  193.09599304    0.00000000    0.00000000
   11.58749962  236.06700134    0.00000000    0.00000000
   11.59083271  205.69900513    0.00000000    0.00000000
   11.59388828  226.46600342    0.00000000    0.00000000
   11.59722233  204.46299744    0.00000000    0.00000000
   11.60027790  182.13999939    0.00000000    0.00000000
   11.60361195  209.89799500    0.00000000    0.00000000
   11.60583401  228.69799805    0.00000000    0.00000000
   11.60722256  229.54200745    0.00000000    0.00000000
   11.61055565  199.13499451    0.00000000    0.00000000
   11.61638927  199.13499451    0.00000000    0.00000000
   11.62055588  186.21800232    0.00000000    0.00000000
   11.62388897  181.05799866    0.00000000    0.00000000
   11.62722206  170.37899780    0.00000000    0.00000000
   11.63027763  173.90899658    0.00000000    0.00000000
   11.63361073  177.51100159    0.00000000    0.00000000
   11.63666630  180.79699707    0.00000000    0.00000000
   11.63916683  180.74699402    0.00000000    0.00000000
   11.64055538  177.75799561    0.00000000    0.00000000
   11.64388847  180.47599792    0.00000000    0.00000000
   11.64694405  161.49099731    0.00000000    0.00000000
   11.65027714  187.60899353    0.00000000    0.00000000
   11.65333271  183.94799805    0.00000000    0.00000000
   11.65944386  183.94799805    0.00000000    0.00000000
   11.66361046  177.27400208    0.00000000    0.00000000
   11.66666698  188.96800232    0.00000000    0.00000000
   11.67000008  165.44299316    0.00000000    0.00000000
   11.67250061  179.71200562    0.00000000    0.00000000
   11.67361164  170.19999695    0.00000000    0.00000000
   11.67694473  187.12500000    0.00000000    0.00000000
   11.68000031  172.49099731    0.00000000    0.00000000
   11.68333340  171.08399963    0.00000000    0.00000000
   11.68638897  181.70500183    0.00000000    0.00000000
   11.68972206  182.24299622    0.00000000    0.00000000
   11.69305515  179.55799866    0.00000000    0.00000000
   11.69611073  181.03700256    0.00000000    0.00000000
   11.70222187  181.03700256    0.00000000    0.00000000
   11.70638847  178.80799866    0.00000000    0.00000000
   11.70944405  181.27299500    0.00000000    0.00000000
   11.71277714  172.80799866    0.00000000    0.00000000
   11.71611118  162.24499512    0.00000000    0.00000000
   11.71916580  175.67300415    0.00000000    0.00000000
   11.72249985  182.10499573    0.00000000    0.00000000
   11.72583294  173.91600037    0.00000000    0.00000000
   11.72888851  181.53500366    0.00000000    0.00000000
   11.73222160  183.49899292    0.00000000    0.00000000
   11.73527813  168.16799927    0.00000000    0.00000000
   11.73861122  157.99400330    0.00000000    0.00000000
   11.73916721  163.61999512    0.00000000    0.00000000
   11.74499989  163.61999512    0.00000000    0.00000000
   11.74916649  168.23899841    0.00000000    0.00000000
   11.75249958  168.27999878    0.00000000    0.00000000
   11.75555515  163.18499756    0.00000000    0.00000000
   11.75888920  168.46000671    0.00000000    0.00000000
   11.76222229  166.52099609    0.00000000    0.00000000
   11.76527786  179.83799744    0.00000000    0.00000000
   11.76861095  164.52400208    0.00000000    0.00000000
   11.77166653  161.95700073    0.00000000    0.00000000
   11.77250004  159.04200745    0.00000000    0.00000000
   11.77527714  171.84500122    0.00000000    0.00000000
   11.77861118  175.93699646    0.00000000    0.00000000
   11.78166676  180.86399841    0.00000000    0.00000000
   11.78777790  180.86399841    0.00000000    0.00000000
   11.79194450  173.99800110    0.00000000    0.00000000
   11.79527855  171.88999939    0.00000000    0.00000000
   11.79861164  169.58900452    0.00000000    0.00000000
   11.80166721  155.73899841    0.00000000    0.00000000
   11.80500031  165.74299622    0.00000000    0.00000000
   11.80583382  172.77099609    0.00000000    0.00000000
   11.80861092  169.75199890    0.00000000    0.00000000
   11.81194496  158.44000244    0.00000000    0.00000000
   11.81500053  172.29499817    0.00000000    0.00000000
   11.81833363  164.53399658    0.00000000    0.00000000
   11.82166672  164.11999512    0.00000000    0.00000000
   11.82472229  158.78799438    0.00000000    0.00000000
   11.83083344  158.78799438    0.00000000    0.00000000
   11.83500004  169.72900391    4.90999985    2.67000008
   11.83888817  175.80000305    4.90999985    2.67000008
   11.83944416  164.65600586    4.90999985    2.67000008
   11.84277725  177.85000610    4.90999985    2.67000008
   11.84583282  163.44500732    4.90999985    2.67000008
   11.84916592  158.89399719    4.90999985    2.67000008
   11.85249996  174.45100403    4.90999985    2.67000008
   11.85555553  164.60499573    4.90999985    2.67000008
   11.85888958  164.64300537    4.90999985    2.67000008
   11.86194515  163.19700623    4.90999985    2.67000008
   11.86527824  175.94500732    4.90999985    2.67000008
   11.86861134  192.54800415    4.90999985    2.67000008
   11.87361145  192.54800415    4.90999985    2.67000008
   11.87777805  206.33799744    4.90999985    2.67000008
   11.88083363  194.71699524    4.90999985    2.67000008
   11.88416672  180.08000183    4.90999985    2.67000008
   11.88749981  177.10400391    4.90999985    2.67000008
   11.89055538  197.69999695    4.90999985    2.67000008
   11.89388847  172.97300720    4.90999985    2.67000008
   11.89722252  180.01400757    4.90999985    2.67000008
   11.90027714  168.28199768    4.90999985    2.67000008
   11.90361118  168.19999695    4.90999985    2.67000008
   11.90611076  164.93899536    4.90999985    2.67000008
   11.90749931  176.66499329    4.90999985    2.67000008
   11.91055489  167.79400635    4.90999985    2.67000008
   11.91638851  167.79400635    4.90999985    2.67000008
   11.92055607  154.39300537    4.90999985    2.67000008
   11.92388916  166.13000488    4.90999985    2.67000008
   11.92694473  174.04299927    4.90999985    2.67000008
   11.93027782  159.35600281    4.90999985    2.67000008
   11.93361092  160.04899597    4.90999985    2.67000008
   11.93666649  147.30900574    4.90999985    2.67000008
   11.93944454  153.77400208    4.90999985    2.67000008
   11.94055557  152.50500488    4.90999985    2.67000008
   11.94361115  156.79800415    4.90999985    2.67000008
   11.94694424  151.70899963    4.90999985    2.67000008
   11.95027733  158.77600098    4.90999985    2.67000008
   11.95333290  155.65800476    4.90999985    2.67000008
   11.95916653  155.65800476    4.90999985    2.67000008
   11.96333313  151.58399963    4.90999985    2.67000008
   11.96666622  154.13600159    4.90999985    2.67000008
   11.96999931  157.81599426    4.90999985    2.67000008
   11.97277737  151.60600281    4.90999985    2.67000008
   11.97361088  150.68899536    4.90999985    2.67000008
   11.97666645  161.64300537    4.90999985    2.67000008
   11.97999954  150.54499817    4.90999985    2.67000008
   11.98333359  152.67999268    4.90999985    2.67000008
   11.98638916  162.22900391    4.90999985    2.67000008
   11.98972225  157.67799377    4.90999985    2.67000008
   11.99305534  153.56100464    4.90999985    2.67000008
   11.99611092  152.24699402    4.90999985    2.67000008
   12.00222206  152.24699402    4.90999985    2.67000008
   12.00638866  150.91299438    4.90999985    2.67000008
   12.00944424  155.44999695    4.90999985    2.67000008
   12.01277733  145.83200073    4.90999985    2.67000008
   12.01583290  145.23399353    4.90999985    2.67000008
   12.01916599  148.97999573    4.90999985    2.67000008
   12.02250004  148.79100037    4.90999985    2.67000008
   12.02555561  152.64799500    4.90999985    2.67000008
   12.02888870  153.55400085    4.90999985    2.67000008
   12.03222179  147.13800049    4.90999985    2.67000008
   12.03527832  153.14100647    4.90999985    2.67000008
   12.03861141  154.67900085    4.90999985    2.67000008
   12.03944492  154.82600403    4.90999985    2.67000008
   12.04500008  154.82600403    4.90999985    2.67000008
   12.04916668  154.91999817    4.90999985    2.67000008
   12.05222225  157.92799377    4.90999985    2.67000008
   12.05555534  153.44999695    4.90999985    2.67000008
   12.05888939  156.41999817    4.90999985    2.67000008
   12.06194496  151.78799438    4.90999985    2.67000008
   12.06527805  147.31399536    4.90999985    2.67000008
   12.06861115  154.86500549    4.90999985    2.67000008
   12.07166672  164.18600464    4.90999985    2.67000008
   12.07277775  161.66999817    4.90999985    2.67000008
   12.07555580  158.44900513    4.90999985    2.67000008
   12.07861137  153.60800171    4.90999985    2.67000008
   12.08194447  155.73399353    4.90999985    2.67000008
   12.08777714  155.73399353    4.90999985    2.67000008
   12.09194374  156.53999329    4.90999985    2.67000008
   12.09527779  152.32600403    4.90999985    2.67000008
   12.09833336  155.39999390    4.90999985    2.67000008
   12.10166740  153.51800537    4.90999985    2.67000008
   12.10500050  139.01300049    4.90999985    2.67000008
   12.10611153  150.57099915    4.90999985    2.67000008
   12.10861111  141.61599731    4.90999985    2.67000008
   12.11166668  156.51400757    4.90999985    2.67000008
   12.11500072  146.10600281    4.90999985    2.67000008
   12.11833382  152.55799866    4.90999985    2.67000008
   12.12138939  160.41099548    4.90999985    2.67000008
   12.12472248  160.29899597    4.90999985    2.67000008
   12.13055611  160.29899597    4.90999985    2.67000008
   12.13472176  162.38299561    4.90999985    2.67000008
   12.13805580  144.62800598    4.90999985    2.67000008
   12.13944435  154.63800049    4.90999985    2.67000008
   12.14166641  153.21800232    4.90999985    2.67000008
   12.14472198  142.00599670    4.90999985    2.67000008
   12.14805508  139.26800537    4.90999985    2.67000008
   12.15138817  151.49000549    4.90999985    2.67000008
   12.15444374  143.15100098    4.90999985    2.67000008
   12.15777779  150.38999939    4.90999985    2.67000008
   12.16111088  145.62100220    4.90999985    2.67000008
   12.16416645  133.94599915    4.90999985    2.67000008
   12.16750050  151.84500122    4.90999985    2.67000008
   12.17361164  151.84500122    4.90999985    2.67000008
   12.17777824  148.36799622    4.90999985    2.67000008
   12.18083382  142.43400574    4.90999985    2.67000008
   12.18416691  152.22700500    4.90999985    2.67000008
   12.18722248  144.50100708    4.90999985    2.67000008
   12.19055557  144.58500671    4.90999985    2.67000008
   12.19388866  137.24099731    4.90999985    2.67000008
   12.19694424  138.69099426    4.90999985    2.67000008
   12.20027733  143.96400452    4.90999985    2.67000008
   12.20361137  146.85000610    4.90999985    2.67000008
   12.20611095  146.12500000    4.90999985    2.67000008
   12.20722198  131.61199951    4.90999985    2.67000008
   12.21055508  136.82099915    4.90999985    2.67000008
   12.21638870  136.82099915    4.90999985    2.67000008
   12.22055531  143.43499756    4.90999985    2.67000008
   12.22361088  145.72700500    4.90999985    2.67000008
   12.22694397  136.72900391    4.90999985    2.67000008
   12.23027706  142.36399841    4.90999985    2.67000008
   12.23333359  144.46600342    4.90999985    2.67000008
   12.23666668  144.53199768    4.90999985    2.67000008
   12.23944473  145.33900452    4.90999985    2.67000008
   12.24027824  137.53700256    4.90999985    2.67000008
   12.24333382  139.75199890    4.90999985    2.67000008
   12.24666691  138.36399841    4.90999985    2.67000008
   12.25000000  145.06799316    4.90999985    2.67000008
   12.25305557  149.17199707    4.90999985    2.67000008
   12.25916672  149.17199707    4.90999985    2.67000008
   12.26333332  153.38000488    4.90999985    2.67000008
   12.26666641  173.67100525    4.90999985    2.67000008
   12.26972198  157.51899719    4.90999985    2.67000008
   12.27277756  148.86500549    4.90999985    2.67000008
   12.27361107  166.53100586    4.90999985    2.67000008
   12.27694416  149.57600403    4.90999985    2.67000008
   12.27999973  143.65299988    4.90999985    2.67000008
   12.28333378  150.49499512    4.90999985    2.67000008
   12.28638935  157.92300415    4.90999985    2.67000008
   12.28972244  161.76199341    4.90999985    2.67000008
   12.29305553  161.88200378    4.90999985    2.67000008
   12.29611111  155.65800476    4.90999985    2.67000008
   12.30194473  155.65800476    4.90999985    2.67000008
   12.30611134  154.90600586    4.90999985    2.67000008
   12.30944443  163.72799683    4.90999985    2.67000008
   12.31277752  156.28500366    4.90999985    2.67000008
   12.31583309  168.78700256    4.90999985    2.67000008
   12.31916618  152.34399414    4.90999985    2.67000008
   12.32250023  163.23199463    4.90999985    2.67000008
   12.32555580  164.86999512    4.90999985    2.67000008
   12.32888889  180.16000366    4.90999985    2.67000008
   12.33222198  186.96499634    4.90999985    2.67000008
   12.33527756  176.25100708    4.90999985    2.67000008
   12.33861065  189.75399780    4.90999985    2.67000008
   12.33944416  181.91499329    4.90999985    2.67000008
   12.36027813  181.91499329    4.90999985    2.67000008
   12.36416721  156.90400696    4.90999985    2.67000008
   12.36750031  153.92399597    4.90999985    2.67000008
   12.37083340  149.92300415    4.90999985    2.67000008
   12.37277794  158.68600464    4.90999985    2.67000008
   12.37444496  157.54499817    4.90999985    2.67000008
   12.37777805  141.83999634    4.90999985    2.67000008
   12.38083363  144.46899414    4.90999985    2.67000008
   12.38416672  156.27400208    4.90999985    2.67000008
   12.38722229  157.88699341    4.90999985    2.67000008
   12.39055538  143.49099731    4.90999985    2.67000008
   12.39388847  148.56399536    4.90999985    2.67000008
   12.39694405  141.25300598    4.90999985    2.67000008
   12.40305519  141.25300598    4.90999985    2.67000008
   12.40694427  128.23399353    4.90999985    2.67000008
   12.41027737  133.43400574    4.90999985    2.67000008
   12.41361046  139.09199524    4.90999985    2.67000008
   12.41666698  145.27900696    4.90999985    2.67000008
   12.42000008  142.11199951    4.90999985    2.67000008
   12.42333412  135.08599854    4.90999985    2.67000008
   12.42638874  145.51100159    4.90999985    2.67000008
   12.42972279  144.50300598    4.90999985    2.67000008
   12.43277836  138.86500549    4.90999985    2.67000008
   12.43611145  146.38600159    4.90999985    2.67000008
   12.43944454  148.47200012    4.90999985    2.67000008
   12.44000053  138.96899414    4.90999985    2.67000008
   12.44583321  138.96899414    4.90999985    2.67000008
   12.44999981  164.27299500    4.90999985    2.67000008
   12.45305538  156.28399658    4.90999985    2.67000008
   12.45638847  150.28900146    4.90999985    2.67000008
   12.45944405  156.51899719    4.90999985    2.67000008
   12.46277714  192.58200073    4.90999985    2.67000008
   12.46611118  165.98500061    4.90999985    2.67000008
   12.46916580  156.68400574    4.90999985    2.67000008
   12.47249985  141.35499573    4.90999985    2.67000008
   12.47333336  165.83900452    4.90999985    2.67000008
   12.47611046  175.67599487    4.90999985    2.67000008
   12.47944355  138.42700195    4.90999985    2.67000008
   12.48277760  234.23300171    4.90999985    2.67000008
   12.48861122  234.23300171    4.90999985    2.67000008
   12.49277782  158.79200745    4.90999985    2.67000008
   12.49583340  150.77799988    4.90999985    2.67000008
   12.49916649  150.91799927    4.90999985    2.67000008
   12.50249958  185.76699829    4.90999985    2.67000008
   12.50555515  181.64300537    4.90999985    2.67000008
   12.50666714  170.94099426    4.90999985    2.67000008
   12.50916672  174.54299927    4.90999985    2.67000008
   12.51249981  145.74600220    4.90999985    2.67000008
   12.51583290  151.42300415    4.90999985    2.67000008
   12.51888847  183.48699951    4.90999985    2.67000008
   12.52222157  172.44000244    4.90999985    2.67000008
   12.52527714  144.64399719    4.90999985    2.67000008
   12.53138828  144.64399719    4.90999985    2.67000008
   12.53555584  133.06900024    4.90999985    2.67000008
   12.53888893  193.28300476    4.90999985    2.67000008
   12.54000092  167.80999756    4.90999985    2.67000008
   12.54222298  156.69299316    4.90999985    2.67000008
   12.54555607  158.86599731    4.90999985    2.67000008
   12.54888916  173.28500366    4.90999985    2.67000008
   12.55194473  186.32299805    4.90999985    2.67000008
   12.55527782  179.74099731    4.90999985    2.67000008
   12.55833340  183.53500366    4.90999985    2.67000008
   12.56166649  169.82899475    4.90999985    2.67000008
   12.56500053  174.41299438    4.90999985    2.67000008
   12.56805515  172.41299438    4.90999985    2.67000008
   12.57416630  172.41299438    4.90999985    2.67000008
   12.57833290  162.95300293    4.90999985    2.67000008
   12.58166695  138.29800415    4.90999985    2.67000008
   12.58500004  173.23800659    4.90999985    2.67000008
   12.58805561  140.42799377    4.90999985    2.67000008
   12.59138870  137.96699524    4.90999985    2.67000008
   12.59444427  162.17500305    4.90999985    2.67000008
   12.59777737  182.64999390    4.90999985    2.67000008
   12.60111141  154.73500061    4.90999985    2.67000008
   12.60416698  149.56700134    4.90999985    2.67000008
   12.60666752  171.65400696    4.90999985    2.67000008
   12.60777855  159.07600403    4.90999985    2.67000008
   12.61111164  137.60600281    4.90999985    2.67000008
   12.61722279  137.60600281    4.90999985    2.67000008
   12.62138939  154.36399841    4.90999985    2.67000008
   12.62444496  179.85299683    4.90999985    2.67000008
   12.62777805  138.97399902    4.90999985    2.67000008
   12.63111115  158.75100708    4.90999985    2.67000008
   12.63416672  167.64399719    4.90999985    2.67000008
   12.63749981  192.04800415    4.90999985    2.67000008
   12.64000034  197.71099854    4.90999985    2.67000008
   12.64111137  194.56900024    4.90999985    2.67000008
   12.64444447  224.52900696    4.90999985    2.67000008
   12.64777756  209.26300049    4.90999985    2.67000008
   12.65083313  206.83099365    4.90999985    2.67000008
   12.65416622  180.80299377    4.90999985    2.67000008
   12.65999985  180.80299377    4.90999985    2.67000008
   12.66416645  193.54699707    4.90999985    2.67000008
   12.66722298  180.03799438    4.90999985    2.67000008
   12.67055607  152.25599670    4.90999985    2.67000008
   12.67333412  172.56100464    4.90999985    2.67000008
   12.67416668  165.29600525    4.90999985    2.67000008
   12.67750072  180.55599976    4.90999985    2.67000008
   12.68083382  155.30900574    4.90999985    2.67000008
   12.68388939  177.74699402    4.90999985    2.67000008
   12.68722248  186.83299255    4.90999985    2.67000008
   12.69027805  166.21800232    4.90999985    2.67000008
   12.69361115  209.93899536    4.90999985    2.67000008
   12.69694424  159.82499695    4.90999985    2.67000008
   12.70277786  159.82499695    4.90999985    2.67000008
   12.70694447  152.83299255    4.90999985    2.67000008
   12.71027756  175.57099915    4.90999985    2.67000008
   12.71333313  139.58999634    4.90999985    2.67000008
   12.71666622  178.61099243    4.90999985    2.67000008
   12.71999931  164.81700134    4.90999985    2.67000008
   12.72305489  177.41700745    4.90999985    2.67000008
   12.72638798  159.47700500    4.90999985    2.67000008
   12.72944355  177.92300415    4.90999985    2.67000008
   12.73277760  159.02099609    4.90999985    2.67000008
   12.73611164  156.43899536    4.90999985    2.67000008
   12.73916721  154.20500183    4.90999985    2.67000008
   12.74000072  169.38600159    4.90999985    2.67000008
   12.74555588  169.38600159    4.90999985    2.67000008
   12.74972248  129.59100342    4.90999985    2.67000008
   12.75305557  135.99600220    4.90999985    2.67000008
   12.75638866  136.40899658    4.90999985    2.67000008
   12.75944424  146.91499329    4.90999985    2.67000008
   12.76277733  137.36900330    4.90999985    2.67000008
   12.76611137  143.21099854    4.90999985    2.67000008
   12.76916599  151.79699707    4.90999985    2.67000008
   12.77250004  147.05299377    4.90999985    2.67000008
   12.77333355  147.02499390    4.90999985    2.67000008
   12.77611065  142.12100220    4.90999985    2.67000008
   12.77944374  139.81199646    4.90999985    2.67000008
   12.78277779  141.14799500    4.90999985    2.67000008
   12.78861141  141.14799500    4.90999985    2.67000008
   12.79277802  144.27099609    4.90999985    2.67000008
   12.79583359  142.52600098    4.90999985    2.67000008
   12.79916668  140.86799622    4.90999985    2.67000008
   12.80222225  151.47900391    4.90999985    2.67000008
   12.80555534  150.36099243    4.90999985    2.67000008
   12.80666733  151.15400696    4.90999985    2.67000008
   12.80916691  172.06100464    4.90999985    2.67000008
   12.81250000  150.84599304    4.90999985    2.67000008
   12.81583309  149.94700623    4.90999985    2.67000008
   12.81888866  139.18800354    4.90999985    2.67000008
   12.82222176  149.56900024    4.90999985    2.67000008
   12.82555580  142.54299927    4.90999985    2.67000008
   12.83138847  142.54299927    4.90999985    2.67000008
   12.83555508  151.98500061    4.90999985    2.67000008
   12.83861065  151.07800293    4.90999985    2.67000008
   12.84000015  148.69599915    4.90999985    2.67000008
   12.84249973  145.01100159    4.90999985    2.67000008
   12.84555531  159.06500244    4.90999985    2.67000008
   12.84888840  154.80200195    4.90999985    2.67000008
   12.85222244  160.76499939    4.90999985    2.67000008
   12.85527802  157.08999634    4.90999985    2.67000008
   12.85861111  161.80299377    4.90999985    2.67000008
   12.86166668  177.26400757    4.90999985    2.67000008
   12.86500072  185.61199951    4.90999985    2.67000008
   12.86833382  182.36000061    4.90999985    2.67000008
   12.87416649  182.36000061    4.90999985    2.67000008
   12.87833309  142.63600159    4.90999985    2.67000008
   12.88166714  143.07899475    4.90999985    2.67000008
   12.88472176  142.78900146    4.90999985    2.67000008
   12.88805580  141.39599609    4.90999985    2.67000008
   12.89138889  136.49699402    4.90999985    2.67000008
   12.89444447  138.75999451    4.90999985    2.67000008
   12.89777756  131.73500061    4.90999985    2.67000008
   12.90083313  133.84899902    4.90999985    2.67000008
   12.90416622  145.67500305    4.90999985    2.67000008
   12.90666676  144.57400513    4.90999985    2.67000008
   12.90777779  142.94099426    4.90999985    2.67000008
   12.91111088  145.26199341    4.90999985    2.67000008
   12.91694450  145.26199341    4.90999985    2.67000008
   12.92111111  156.69400024    4.90999985    2.67000008
   12.92444515  161.09399414    4.90999985    2.67000008
   12.92777824  139.90800476    4.90999985    2.67000008
   12.93083382  148.08200073    4.90999985    2.67000008
   12.93416691  154.20100403    4.90999985    2.67000008
   12.93722248  146.39300537    4.90999985    2.67000008
   12.94000053  140.55999756    4.90999985    2.67000008
   12.94083309  160.46099854    4.90999985    2.67000008
   12.94416714  166.96899414    4.90999985    2.67000008
   12.94750023  137.31500244    4.90999985    2.67000008
   12.95083332  151.69200134    4.90999985    2.67000008
   12.95416641  137.32800293    4.90999985    2.67000008
   12.96000004  137.32800293    4.90999985    2.67000008
   12.96416664  165.42399597    4.90999985    2.67000008
   12.96722221  140.41799927    4.90999985    2.67000008
   12.97055531  142.19000244    4.90999985    2.67000008
   12.97333336  133.31100464    4.90999985    2.67000008
   12.97388840  142.94099426    4.90999985    2.67000008
   12.97722149  147.03300476    4.90999985    2.67000008
   12.98055553  139.50300598    4.90999985    2.67000008
   12.98361111  142.28700256    4.90999985    2.67000008
   12.98694515  142.85099792    4.90999985    2.67000008
   12.99027824  142.99400330    4.90999985    2.67000008
   12.99333382  150.08099365    4.90999985    2.67000008
   12.99666691  141.82499695    4.90999985    2.67000008
   13.00277805  141.82499695    4.90999985    2.67000008
   13.00694466  146.27900696    4.90999985    2.67000008
   13.01027775  135.33200073    4.90999985    2.67000008
   13.01333332  143.46499634    4.90999985    2.67000008
   13.01666641  145.96000671    4.90999985    2.67000008
   13.01972198  136.58599854    4.90999985    2.67000008
   13.02305508  135.28300476    4.90999985    2.67000008
   13.02638817  148.66000366    4.90999985    2.67000008
   13.02944374  140.31199646    4.90999985    2.67000008
   13.03277779  135.98100281    4.90999985    2.67000008
   13.03611183  135.25199890    4.90999985    2.67000008
   13.03916740  146.82600403    4.90999985    2.67000008
   13.04000092  133.98800659    4.90999985    2.67000008
   13.04555607  133.98800659    4.90999985    2.67000008
   13.04972267  137.82200623    4.90999985    2.67000008
   13.05305576  140.05299377    4.90999985    2.67000008
   13.05611134  142.03100586    4.90999985    2.67000008
   13.05944443  137.62500000    4.90999985    2.67000008
   13.06277752  140.64700317    4.90999985    2.67000008
   13.06583309  140.97399902    4.90999985    2.67000008
   13.06916618  137.38600159    4.90999985    2.67000008
   13.07250023  139.39599609    4.90999985    2.67000008
   13.07333374  144.43699646    4.90999985    2.67000008
   13.07611084  139.68899536    4.90999985    2.67000008
   13.07916641  144.65400696    4.90999985    2.67000008
   13.08249950  139.15699768    4.90999985    2.67000008
   13.08833313  139.15699768    4.90999985    2.67000008
   13.09249973  141.90100098    4.90999985    2.67000008
   13.09583282  144.15499878    4.90999985    2.67000008
   13.09916592  151.01699829    4.90999985    2.67000008
   13.10222244  149.67300415    4.90999985    2.67000008
   13.10555553  145.57699585    4.90999985    2.67000008
   13.10666752  141.42100525    4.90999985    2.67000008
   13.10916710  143.76400757    4.90999985    2.67000008
   13.11222267  145.63499451    4.90999985    2.67000008
   13.11555576  146.13099670    4.90999985    2.67000008
   13.11861134  139.58700562    4.90999985    2.67000008
   13.12194443  144.04100037    4.90999985    2.67000008
   13.12527752  144.36799622    4.90999985    2.67000008
   13.13138866  144.36799622    4.90999985    2.67000008
   13.13555527  138.69400024    4.90999985    2.67000008
   13.13861084  144.00399780    4.90999985    2.67000008
   13.14000034  144.11000061    4.90999985    2.67000008
   13.14249992  139.75900269    4.90999985    2.67000008
   13.14555550  148.12399292    4.90999985    2.67000008
   13.14888859  142.43499756    4.90999985    2.67000008
   13.15222168  135.63600159    4.90999985    2.67000008
   13.15527725  145.88600159    4.90999985    2.67000008
   13.15861034  138.75100708    4.90999985    2.67000008
   13.16194439  146.44599915    4.90999985    2.67000008
   13.16499996  148.05000305    4.90999985    2.67000008
   13.16833401  148.30200195    4.90999985    2.67000008
   13.17416668  148.30200195    4.90999985    2.67000008
   13.17833328  150.05700684    4.90999985    2.67000008
   13.18138885  146.82899475    4.90999985    2.67000008
   13.18472195  144.02000427    4.90999985    2.67000008
   13.18805599  147.88600159    4.90999985    2.67000008
   13.19111156  147.50900269    4.90999985    2.67000008
   13.19444466  152.07600403    4.90999985    2.67000008
   13.19777775  142.91600037    4.90999985    2.67000008
   13.20083332  148.62899780    4.90999985    2.67000008
   13.20416641  160.32099915    4.90999985    2.67000008
   13.20666695  148.41000366    4.90999985    2.67000008
   13.20777798  144.97099304    4.90999985    2.67000008
   13.21083355  149.89900208    4.90999985    2.67000008
   13.21694374  149.89900208    4.90999985    2.67000008
   13.22111034  151.28900146    4.90999985    2.67000008
   13.22444439  152.36300659    4.90999985    2.67000008
   13.22749996  150.52699280    4.90999985    2.67000008
   13.23083305  145.25700378    4.90999985    2.67000008
   13.23416710  148.93200684    4.90999985    2.67000008
   13.23722267  145.24000549    4.90999985    2.67000008
   13.24000072  147.59800720    4.90999985    2.67000008
   13.24111176  142.37199402    4.90999985    2.67000008
   13.24416733  159.59899902    4.90999985    2.67000008
   13.24750042  155.82699585    4.90999985    2.67000008
   13.25083351  150.04899597    4.90999985    2.67000008
   13.25388908  152.88400269    4.90999985    2.67000008
   13.25972176  152.88400269    4.90999985    2.67000008
   13.26388931  157.08399963    4.90999985    2.67000008
   13.26722240  138.40400696    4.90999985    2.67000008
   13.27055550  137.94900513    4.90999985    2.67000008
   13.27333355  141.91299438    4.90999985    2.67000008
   13.27416611  146.65199280    4.90999985    2.67000008
   13.27722168  144.26600647    4.90999985    2.67000008
   13.28055573  137.19000244    4.90999985    2.67000008
   13.28388977  150.87800598    4.90999985    2.67000008
   13.28694534  146.09500122    4.90999985    2.67000008
   13.29027843  149.97399902    4.90999985    2.67000008
   13.29333401  141.38600159    4.90999985    2.67000008
   13.29666710  144.01800537    4.90999985    2.67000008
   13.30277824  144.01800537    4.90999985    2.67000008
   13.30694485  149.63499451    4.90999985    2.67000008
   13.31000042  142.19700623    4.90999985    2.67000008
   13.31333351  161.74000549    4.90999985    2.67000008
   13.31638908  153.89500427    4.90999985    2.67000008
   13.31972218  152.57000732    4.90999985    2.67000008
   13.32305527  146.93600464    4.90999985    2.67000008
   13.32611084  147.12800598    4.90999985    2.67000008
   13.32944393  143.32400513    4.90999985    2.67000008
   13.33277798  142.10200500    4.90999985    2.67000008
   13.33583260  148.99000549    4.90999985    2.67000008
   13.33916664  158.80200195    4.90999985    2.67000008
   13.34000015  147.24200439    4.90999985    2.67000008
   13.34555531  147.24200439    4.90999985    2.67000008
   13.34972191  142.84500122    4.90999985    2.67000008
   13.35277843  150.45300293    4.90999985    2.67000008
   13.35611153  149.80799866    4.90999985    2.67000008
   13.37361145  145.03599548    4.90999985    2.67000008
   13.37611103  153.10299683    4.90999985    2.67000008
   13.37944412  148.83799744    4.90999985    2.67000008
   13.38249969  131.11599731    4.90999985    2.67000008
   13.38861084  131.11599731    4.90999985    2.67000008
   13.39277744  143.66900635    4.90999985    2.67000008
   13.39583302  146.23300171    4.90999985    2.67000008
   13.39916611  145.51400757    4.90999985    2.67000008
   13.40249920  143.05299377    4.90999985    2.67000008
   13.40555477  139.71699524    4.90999985    2.67000008
   13.40694427  140.69599915    4.90999985    2.67000008
   13.40944386  151.60699463    4.90999985    2.67000008
   13.41249943  140.46200562    4.90999985    2.67000008
   13.41583252  146.21699524    4.90999985    2.67000008
   13.41916656  147.11099243    4.90999985    2.67000008
   13.42222214  139.31100464    4.90999985    2.67000008
   13.42555618  144.20399475    4.90999985    2.67000008
   13.43138885  144.20399475    4.90999985    2.67000008
   13.43555546  152.76499939    4.90999985    2.67000008
   13.43888855  145.89100647    4.90999985    2.67000008
   13.44027805  148.81599426    4.90999985    2.67000008
   13.44250011  158.18499756    4.90999985    2.67000008
   13.44555569  151.17399597    4.90999985    2.67000008
   13.44888878  150.01800537    4.90999985    2.67000008
   13.45222187  147.34300232    4.90999985    2.67000008
   13.45527744  145.33299255    4.90999985    2.67000008
   13.45861053  156.66499329    4.90999985    2.67000008
   13.46194458  155.87899780    4.90999985    2.67000008
   13.46500015  149.65400696    4.90999985    2.67000008
   13.46833324  151.68899536    4.90999985    2.67000008
   13.47416592  151.68899536    4.90999985    2.67000008
   13.47833252  166.90400696    4.90999985    2.67000008
   13.48166656  160.36099243    4.90999985    2.67000008
   13.48472214  156.73800659    4.90999985    2.67000008
   13.48805618  152.03300476    4.90999985    2.67000008
   13.49138927  154.93200684    4.90999985    2.67000008
   13.49444485  140.45599365    4.90999985    2.67000008
   13.49777794  152.29800415    4.90999985    2.67000008
   13.50083351  157.61300659    4.90999985    2.67000008
   13.50416660  147.25900269    4.90999985    2.67000008
   13.50694466  139.39399719    4.90999985    2.67000008
   13.50777817  142.67100525    4.90999985    2.67000008
   13.51083374  143.27099609    4.90999985    2.67000008
   13.51694393  143.27099609    4.90999985    2.67000008
   13.52111053  147.53799438    4.90999985    2.67000008
   13.52444458  139.75999451    4.90999985    2.67000008
   13.52777767  137.42500305    4.90999985    2.67000008
   13.53083324  149.46600342    4.90999985    2.67000008
   13.53416729  143.56700134    4.90999985    2.67000008
   13.53722286  151.17999268    4.90999985    2.67000008
   13.54027843  148.80700684    4.90999985    2.67000008
   13.54111195  138.71600342    4.90999985    2.67000008
   13.54444504  147.75399780    4.90999985    2.67000008
   13.54750061  146.58900452    4.90999985    2.67000008
   13.55083370  149.50799561    4.90999985    2.67000008
   13.55388927  143.62500000    4.90999985    2.67000008
   13.56000042  143.62500000    4.90999985    2.67000008
   13.56416702  133.85099792    4.90999985    2.67000008
   13.56722260  146.14900208    4.90999985    2.67000008
   13.57055569  145.22399902    4.90999985    2.67000008
   13.57361126  151.58700562    4.90999985    2.67000008
   13.57416630  150.30000305    4.90999985    2.67000008
   13.57722187  146.73699951    4.90999985    2.67000008
   13.58055592  149.24200439    4.90999985    2.67000008
   13.58388901  147.70300293    4.90999985    2.67000008
   13.58694458  149.41999817    4.90999985    2.67000008
   13.59027767  149.17599487    4.90999985    2.67000008
   13.59333324  147.80900574    4.90999985    2.67000008
   13.59666634  139.11000061    4.90999985    2.67000008
   13.60277843  139.11000061    4.90999985    2.67000008
   13.60694504  142.39199829    4.90999985    2.67000008
   13.60750008  143.35000610    4.90999985    2.67000008
   13.61055565  147.96800232    4.90999985    2.67000008
   13.61388969  148.15899658    4.90999985    2.67000008
   13.61722279  152.57200623    4.90999985    2.67000008
   13.62027836  149.69799805    4.90999985    2.67000008
   13.62361145  148.44700623    4.90999985    2.67000008
   13.62694454  140.84500122    4.90999985    2.67000008
   13.63000011  156.72399902    4.90999985    2.67000008
   13.63333321  143.95599365    4.90999985    2.67000008
   13.63666630  151.77200317    4.90999985    2.67000008
   13.63972187  138.99299622    4.90999985    2.67000008
   13.64027786  150.56599426    4.90999985    2.67000008
   13.64555550  150.56599426    4.90999985    2.67000008
   13.64972210  175.24099731    4.90999985    2.67000008
   13.65305519  160.62300110    4.90999985    2.67000008
   13.65611076  152.79499817    4.90999985    2.67000008
   13.65944386  154.41000366    4.90999985    2.67000008
   13.66277695  156.76400757    4.90999985    2.67000008
   13.66583252  159.45399475    4.90999985    2.67000008
   13.66916656  151.51499939    4.90999985    2.67000008
   13.67250061  164.51699829    4.90999985    2.67000008
   13.67361164  161.26199341    4.90999985    2.67000008
   13.67611122  159.33200073    4.90999985    2.67000008
   13.67916679  186.29699707    4.90999985    2.67000008
   13.68249989  175.96899414    4.90999985    2.67000008
   13.68833351  175.96899414    4.90999985    2.67000008
   13.69250011  162.87899780    4.90999985    2.67000008
   13.69583321  155.45399475    4.90999985    2.67000008
   13.69916630  149.55299377    4.90999985    2.67000008
   13.70222187  147.65800476    4.90999985    2.67000008
   13.70555496  154.64599609    4.90999985    2.67000008
   13.70694447  147.55900574    4.90999985    2.67000008
   13.70916653  153.63499451    4.90999985    2.67000008
   13.71249962  153.91900635    4.90999985    2.67000008
   13.71555519  149.65600586    4.90999985    2.67000008
   13.71888828  153.59800720    4.90999985    2.67000008
   13.72194386  148.58099365    4.90999985    2.67000008
   13.72527695  161.82200623    4.90999985    2.67000008
   13.73138809  161.82200623    4.90999985    2.67000008
   13.73555565  152.65600586    4.90999985    2.67000008
   13.73861122  150.61500549    4.90999985    2.67000008
   13.74027824  145.71400452    4.90999985    2.67000008
   13.74222279  146.74699402    4.90999985    2.67000008
   13.74527836  144.31199646    4.90999985    2.67000008
   13.74861145  154.19999695    4.90999985    2.67000008
   13.75194454  147.02499390    4.90999985    2.67000008
   13.75500011  148.12500000    4.90999985    2.67000008
   13.75833321  139.63299561    4.90999985    2.67000008
   13.76166630  143.98800659    4.90999985    2.67000008
   13.76472187  145.29100037    4.90999985    2.67000008
   13.76805496  144.15899658    4.90999985    2.67000008
   13.77416611  144.15899658    4.90999985    2.67000008
   13.77833271  137.61300659    4.90999985    2.67000008
   13.78138828  144.89599609    4.90999985    2.67000008
   13.78472233  153.55499268    4.90999985    2.67000008
   13.78805637  145.50999451    4.90999985    2.67000008
   13.79111195  151.69500732    4.90999985    2.67000008
   13.79444504  147.14700317    4.90999985    2.67000008
   13.79777813  146.55599976    4.90999985    2.67000008
   13.80083370  147.25100708    4.90999985    2.67000008
   13.80416679  140.75999451    4.90999985    2.67000008
   13.80694485  151.51499939    4.90999985    2.67000008
   13.80777836  145.28900146    4.90999985    2.67000008
   13.81083393  148.89399719    4.90999985    2.67000008
   13.81694412  148.89399719    4.90999985    2.67000008
   13.82111073  147.51400757    4.90999985    2.67000008
   13.82444477  147.91499329    4.90999985    2.67000008
   13.82750034  145.91799927    4.90999985    2.67000008
   13.83083344  139.52999878    4.90999985    2.67000008
   13.83416653  140.14199829    4.90999985    2.67000008
   13.83722210  148.11500549    4.90999985    2.67000008
   13.84027767  146.46299744    4.90999985    2.67000008
   13.84083271  140.19299316    4.90999985    2.67000008
   13.84388828  142.66000366    4.90999985    2.67000008
   13.84722233  144.28199768    4.90999985    2.67000008
   13.85055637  149.60099792    4.90999985    2.67000008
   13.85361195  144.18499756    4.90999985    2.67000008
   13.85972214  144.18499756    4.90999985    2.67000008
   13.86388969  140.77299500    4.90999985    2.67000008
   13.86722279  147.44200134    4.90999985    2.67000008
   13.87055588  141.85899353    4.90999985    2.67000008
   13.87361145  143.52200317    4.90999985    2.67000008
   13.87416649  140.22900391    4.90999985    2.67000008
   13.87750053  138.73500061    4.90999985    2.67000008
   13.88055611  155.23599243    4.90999985    2.67000008
   13.88388920  147.34300232    4.90999985    2.67000008
   13.88694477  146.39900208    4.90999985    2.67000008
   13.89027786  139.40499878    4.90999985    2.67000008
   13.89361095  143.42399597    4.90999985    2.67000008
   13.89666653  136.50399780    4.90999985    2.67000008
   13.90277767  136.50399780    4.90999985    2.67000008
   13.90694427  145.95500183    4.90999985    2.67000008
   13.90722179  145.02999878    4.90999985    2.67000008
   13.91055489  138.96699524    4.90999985    2.67000008
   13.91388893  136.71600342    4.90999985    2.67000008
   13.91694450  138.25399780    4.90999985    2.67000008
   13.92027855  145.40899658    4.90999985    2.67000008
   13.92361164  145.16000366    4.90999985    2.67000008
   13.92666721  152.16700745    4.90999985    2.67000008
   13.93000031  143.67700195    4.90999985    2.67000008
   13.93333340  147.51300049    4.90999985    2.67000008
   13.93638897  159.22000122    4.90999985    2.67000008
   13.93972206  141.84300232    4.90999985    2.67000008
   13.94055557  140.14500427    4.90999985    2.67000008
   13.94555569  140.14500427    4.90999985    2.67000008
   13.94972229  142.91000366    4.90999985    2.67000008
   13.95277786  137.66499329    4.90999985    2.67000008
   13.95611095  140.72999573    4.90999985    2.67000008
   13.95944405  145.34800720    4.90999985    2.67000008
   13.96277714  147.05299377    4.90999985    2.67000008
   13.96583271  147.47399902    4.90999985    2.67000008
   13.96916580  145.99200439    4.90999985    2.67000008
   13.97222137  146.27200317    4.90999985    2.67000008
   13.97388840  145.72200012    4.90999985    2.67000008
   13.97583294  147.40199280    4.90999985    2.67000008
   13.97916603  143.29600525    4.90999985    2.67000008
   13.98222160  148.45300293    4.90999985    2.67000008
   13.98833370  148.45300293    4.90999985    2.67000008
   13.99250031  141.51100159    4.90999985    2.67000008
   13.99583340  144.42500305    4.90999985    2.67000008
   13.99888897  151.23100281    4.90999985    2.67000008
   14.00222206  150.41499329    4.90999985    2.67000008
   14.00555515  157.21299744    4.90999985    2.67000008
   14.00722218  153.16600037    4.90999985    2.67000008
   14.00916672  151.31900024    4.90999985    2.67000008
   14.01249981  146.80499268    4.90999985    2.67000008
   14.01555538  151.06399536    4.90999985    2.67000008
   14.01888847  153.82600403    4.90999985    2.67000008
   14.02222157  148.73800659    4.90999985    2.67000008
   14.02527714  142.10000610    4.90999985    2.67000008
   14.03111076  142.10000610    4.90999985    2.67000008
   14.03527832  149.19299316    4.90999985    2.67000008
   14.03861141  145.48500061    4.90999985    2.67000008
   14.04055595  152.87699890    4.90999985    2.67000008
   14.04222298  146.65400696    4.90999985    2.67000008
   14.04555607  135.63800049    4.90999985    2.67000008
   14.04861164  139.56599426    4.90999985    2.67000008
   14.05194473  139.06799316    4.90999985    2.67000008
   14.05527782  151.50999451    4.90999985    2.67000008
   14.05833340  147.44999695    4.90999985    2.67000008
   14.06166649  141.61000061    4.90999985    2.67000008
   14.06500053  148.23899841    4.90999985    2.67000008
   14.06805515  132.75199890    4.90999985    2.67000008
   14.07416630  132.75199890    4.90999985    2.67000008
   14.07833290  144.21200562    4.90999985    2.67000008
   14.08138847  149.58900452    4.90999985    2.67000008
   14.08472157  155.61900330    4.90999985    2.67000008
   14.08777714  147.72300720    4.90999985    2.67000008
   14.09111118  152.22799683    4.90999985    2.67000008
   14.09444427  152.38000488    4.90999985    2.67000008
   14.09749985  149.06500244    4.90999985    2.67000008
   14.10083389  142.01800537    4.90999985    2.67000008
   14.10416698  144.23599243    4.90999985    2.67000008
   14.10722256  152.63800049    4.90999985    2.67000008
   14.10777855  150.04899597    4.90999985    2.67000008
   14.11111164  152.96400452    4.90999985    2.67000008
   14.11694431  152.96400452    4.90999985    2.67000008
   14.12111092  139.30900574    4.90999985    2.67000008
   14.12416649  142.58599854    4.90999985    2.67000008
   14.12750053  153.72700500    4.90999985    2.67000008
   14.13083363  154.02699280    4.90999985    2.67000008
   14.13388920  146.42799377    4.90999985    2.67000008
   14.13722229  147.21499634    4.90999985    2.67000008
   14.14055538  145.72399902    4.90999985    2.67000008
   14.14111137  153.73899841    4.90999985    2.67000008
   14.14416695  149.56700134    4.90999985    2.67000008
   14.14722252  157.95100403    4.90999985    2.67000008
   14.15055561  148.22900391    4.90999985    2.67000008
   14.15388870  147.24699402    4.90999985    2.67000008
   14.15972137  147.24699402    4.90999985    2.67000008
   14.16388893  141.97399902    4.90999985    2.67000008
   14.16722298  142.27299500    4.90999985    2.67000008
   14.17027855  138.61399841    4.90999985    2.67000008
   14.17361164  136.33099365    4.90999985    2.67000008
   14.17444515  148.25100708    4.90999985    2.67000008
   14.17722225  145.40100098    4.90999985    2.67000008
   14.18027782  141.99499512    4.90999985    2.67000008
   14.18361092  145.85800171    4.90999985    2.67000008
   14.18694496  151.14900208    4.90999985    2.67000008
   14.19000053  143.02600098    4.90999985    2.67000008
   14.19333363  143.56300354    4.90999985    2.67000008
   14.19638920  138.86500549    4.90999985    2.67000008
   14.20249939  138.86500549    4.90999985    2.67000008
   14.20666695  149.68800354    4.90999985    2.67000008
   14.20777798  145.57299805    4.90999985    2.67000008
   14.21055508  148.21299744    4.90999985    2.67000008
   14.21361065  138.54699707    4.90999985    2.67000008
   14.21694374  142.84700012    4.90999985    2.67000008
   14.22027779  147.86000061    4.90999985    2.67000008
   14.22333336  137.91200256    4.90999985    2.67000008
   14.22666645  140.39599609    4.90999985    2.67000008
   14.22999954  146.00199890    4.90999985    2.67000008
   14.23305511  146.78999329    4.90999985    2.67000008
   14.23638916  146.88400269    4.90999985    2.67000008
   14.23944473  149.07200623    4.90999985    2.67000008
   14.24111176  142.30799866    4.90999985    2.67000008
   14.24555588  142.30799866    4.90999985    2.67000008
   14.24972248  139.88699341    4.90999985    2.67000008
   14.25277805  144.13299561    4.90999985    2.67000008
   14.25611115  133.52900696    4.90999985    2.67000008
   14.25916672  138.23300171    4.90999985    2.67000008
   14.26249981  135.58099365    4.90999985    2.67000008
   14.26583290  142.31500244    4.90999985    2.67000008
   14.26888847  144.92700195    4.90999985    2.67000008
   14.27222157  139.87399292    4.90999985    2.67000008
   14.27444458  151.37699890    4.90999985    2.67000008
   14.27583313  137.11900330    4.90999985    2.67000008
   14.27888870  141.78399658    4.90999985    2.67000008
   14.28222179  144.21899414    4.90999985    2.67000008
   14.28833389  144.21899414    4.90999985    2.67000008
   14.29250050  152.21699524    4.90999985    2.67000008
   14.29583359  142.87199402    4.90999985    2.67000008
   14.29888916  149.38400269    4.90999985    2.67000008
   14.30222225  151.98500061    4.90999985    2.67000008
   14.30527782  143.05200195    4.90999985    2.67000008
   14.30777836  141.49699402    4.90999985    2.67000008
   14.30916691  146.77600098    4.90999985    2.67000008
   14.31222248  146.16700745    4.90999985    2.67000008
   14.31555557  139.97500610    4.90999985    2.67000008
   14.31888866  147.88900757    4.90999985    2.67000008
   14.32194424  144.54800415    4.90999985    2.67000008
   14.32527733  131.58099365    4.90999985    2.67000008
   14.33111095  131.58099365    4.90999985    2.67000008
   14.33527756  128.25599670    4.90999985    2.67000008
   14.33861065  142.22999573    4.90999985    2.67000008
   14.34111118  139.15499878    4.90999985    2.67000008
   14.34222221  136.03900146    4.90999985    2.67000008
   14.34527779  141.90699768    4.90999985    2.67000008
   14.34861088  152.42799377    4.90999985    2.67000008
   14.35194492  146.70100403    4.90999985    2.67000008
   14.35500050  142.05799866    4.90999985    2.67000008
   14.35833359  140.39900208    4.90999985    2.67000008
   14.36138916  140.22799683    4.90999985    2.67000008
   14.36472225  144.06700134    4.90999985    2.67000008
   14.36805534  133.50999451    4.90999985    2.67000008
   14.37388897  133.50999451    4.90999985    2.67000008
   14.39249992  135.80700684    4.90999985    2.67000008
   14.39555550  139.48500061    4.90999985    2.67000008
   14.39888859  148.82800293    4.90999985    2.67000008
   14.40194416  143.53199768    4.90999985    2.67000008
   14.40527725  137.39100647    4.90999985    2.67000008
   14.40861034  146.47200012    4.90999985    2.67000008
   14.41166592  141.87399292    4.90999985    2.67000008
   14.41722298  141.87399292    4.90999985    2.67000008
   14.42111111  138.89700317    4.90999985    2.67000008
   14.42444515  135.76699829    4.90999985    2.67000008
   14.42555618  137.10200500    4.90999985    2.67000008
   14.42805576  137.42399597    4.90999985    2.67000008
   14.43138885  142.86000061    4.90999985    2.67000008
   14.43444443  139.27099609    4.90999985    2.67000008
   14.43777752  141.78599548    4.90999985    2.67000008
   14.44111156  140.26199341    4.90999985    2.67000008
   14.44416714  148.63999939    4.90999985    2.67000008
   14.44750023  141.25300598    4.90999985    2.67000008
   14.45083332  137.31100464    4.90999985    2.67000008
   14.45388889  142.24699402    4.90999985    2.67000008
   14.46000004  142.24699402    4.90999985    2.67000008
   14.46416664  141.73100281    4.90999985    2.67000008
   14.46722221  143.27200317    4.90999985    2.67000008
   14.47055531  149.76899719    4.90999985    2.67000008
   14.47388840  141.95300293    4.90999985    2.67000008
   14.47694397  142.63200378    4.90999985    2.67000008
   14.48027706  139.67399597    4.90999985    2.67000008
   14.48361111  140.49699402    4.90999985    2.67000008
   14.48666668  138.54899597    4.90999985    2.67000008
   14.49000072  137.52200317    4.90999985    2.67000008
   14.49222279  137.21200562    4.90999985    2.67000008
   14.49361134  142.04100037    4.90999985    2.67000008
   14.49694443  144.13299561    4.90999985    2.67000008
   14.50277805  144.13299561    4.90999985    2.67000008
   14.50694466  145.34300232    4.90999985    2.67000008
   14.51027775  137.86500549    4.90999985    2.67000008
   14.51333332  145.75999451    4.90999985    2.67000008
   14.51666641  146.68600464    4.90999985    2.67000008
   14.51999950  134.17700195    4.90999985    2.67000008
   14.52333355  130.43800354    4.90999985    2.67000008
   14.52555561  148.77299500    4.90999985    2.67000008
   14.52694416  139.80400085    4.90999985    2.67000008
   14.53027725  135.22399902    4.90999985    2.67000008
   14.53333378  145.57600403    4.90999985    2.67000008
   14.53666687  136.72900391    4.90999985    2.67000008
   14.54000092  135.83399963    4.90999985    2.67000008
   14.54555607  135.83399963    4.90999985    2.67000008
   14.54972267  142.69200134    4.90999985    2.67000008
   14.55305576  142.42799377    4.90999985    2.67000008
   14.55611134  136.69500732    4.90999985    2.67000008
   14.55888939  137.42199707    4.90999985    2.67000008
   14.55972195  140.26199341    4.90999985    2.67000008
   14.56305599  144.35699463    4.90999985    2.67000008
   14.56638908  139.90899658    4.90999985    2.67000008
   14.56944466  138.27200317    4.90999985    2.67000008
   14.57277775  143.20100403    4.90999985    2.67000008
   14.57583332  140.46000671    4.90999985    2.67000008
   14.57916641  140.35899353    4.90999985    2.67000008
   14.58249950  141.55599976    4.90999985    2.67000008
   14.58833313  141.55599976    4.90999985    2.67000008
   14.59249973  141.39999390    4.90999985    2.67000008
   14.59583282  140.44900513    4.90999985    2.67000008
   14.59916592  144.86399841    4.90999985    2.67000008
   14.60222244  138.54600525    4.90999985    2.67000008
   14.60555553  136.92799377    4.90999985    2.67000008
   14.60861111  131.50799561    4.90999985    2.67000008
   14.61194515  153.23199463    4.90999985    2.67000008
   14.61527824  134.18499756    4.90999985    2.67000008
   14.61833382  137.45300293    4.90999985    2.67000008
   14.62166691  131.72099304    4.90999985    2.67000008
   14.62500000  136.77099609    4.90999985    2.67000008
   14.62555599  135.83200073    4.90999985    2.67000008
   14.63138866  135.83200073    4.90999985    2.67000008
   14.63555527  147.27000427    4.90999985    2.67000008
   14.63861084  144.30999756    4.90999985    2.67000008
   14.64194393  140.24200439    4.90999985    2.67000008
   14.64527798  145.78999329    4.90999985    2.67000008
   14.64833355  148.09199524    4.90999985    2.67000008
   14.65166664  140.70700073    4.90999985    2.67000008
   14.65472221  145.83700562    4.90999985    2.67000008
   14.65805531  140.04400635    4.90999985    2.67000008
   14.65888882  140.79400635    4.90999985    2.67000008
   14.66166592  139.46800232    4.90999985    2.67000008
   14.66499996  140.94099426    4.90999985    2.67000008
   14.66805553  136.07699585    4.90999985    2.67000008
   14.67416668  136.07699585    4.90999985    2.67000008
   14.67833328  141.83799744    4.90999985    2.67000008
   14.68138885  142.80900574    4.90999985    2.67000008
   14.68472195  140.48599243    4.90999985    2.67000008
   14.68805599  135.89799500    4.90999985    2.67000008
   14.69111156  133.77400208    4.90999985    2.67000008
   14.69222260  136.27699280    4.90999985    2.67000008
   14.69472218  135.58799744    4.90999985    2.67000008
   14.69805527  143.49099731    4.90999985    2.67000008
   14.70111084  141.38200378    4.90999985    2.67000008
   14.70444393  137.25999451    4.90999985    2.67000008
   14.70777798  144.97200012    4.90999985    2.67000008
   14.71083355  140.43899536    4.90999985    2.67000008
   14.71694374  140.43899536    4.90999985    2.67000008
   14.72111034  139.36199951    4.90999985    2.67000008
   14.72444439  138.93200684    4.90999985    2.67000008
   14.72555542  127.79100037    4.90999985    2.67000008
   14.72805500  132.48599243    4.90999985    2.67000008
   14.73138809  138.84700012    4.90999985    2.67000008
   14.73472214  135.38099670    4.90999985    2.67000008
   14.73777771  142.63400269    4.90999985    2.67000008
   14.74111176  144.13999939    4.90999985    2.67000008
   14.74416733  151.15499878    4.90999985    2.67000008
   14.74750042  141.57899475    4.90999985    2.67000008
   14.75083351  138.03999329    4.90999985    2.67000008
   14.75388908  152.94799805    4.90999985    2.67000008
   14.75972176  152.94799805    4.90999985    2.67000008
   14.76388931  137.18899536    4.90999985    2.67000008
   14.76722240  143.41499329    4.90999985    2.67000008
   14.77055550  144.79800415    4.90999985    2.67000008
   14.77361107  133.72000122    4.90999985    2.67000008
   14.77694416  132.96699524    4.90999985    2.67000008
   14.77999973  134.25799561    4.90999985    2.67000008
   14.78333378  148.77600098    4.90999985    2.67000008
   14.78666687  136.30999756    4.90999985    2.67000008
   14.78972244  138.54100037    4.90999985    2.67000008
   14.79222298  134.60800171    4.90999985    2.67000008
   14.79333401  150.45199585    4.90999985    2.67000008
   14.79666710  137.02999878    4.90999985    2.67000008
   14.80277824  137.02999878    4.90999985    2.67000008
   14.80666733  142.09800720    4.90999985    2.67000008
   14.81000042  135.49800110    4.90999985    2.67000008
   14.81333351  140.68200684    4.90999985    2.67000008
   14.81638908  141.30299377    4.90999985    2.67000008
   14.81972218  146.93200684    4.90999985    2.67000008
   14.82305527  142.66700745    4.90999985    2.67000008
   14.82555580  137.08200073    4.90999985    2.67000008
   14.82638836  139.89500427    4.90999985    2.67000008
   14.82972240  148.53900146    4.90999985    2.67000008
   14.83305550  156.19400024    4.90999985    2.67000008
   14.83611107  147.71299744    4.90999985    2.67000008
   14.83944416  154.42999268    4.90999985    2.67000008
   14.84555531  154.42999268    4.90999985    2.67000008
   14.84972191  150.56700134    4.90999985    2.67000008
   14.85277843  157.57000732    4.90999985    2.67000008
   14.85611153  142.96899414    4.90999985    2.67000008
   14.85888958  144.86900330    4.90999985    2.67000008
   14.85972214  146.06599426    4.90999985    2.67000008
   14.86305618  136.27400208    4.90999985    2.67000008
   14.86638927  146.44500732    4.90999985    2.67000008
   14.86972237  157.25000000    4.90999985    2.67000008
   14.87277794  146.88499451    4.90999985    2.67000008
   14.87611103  149.85099792    4.90999985    2.67000008
   14.87944412  152.96600342    4.90999985    2.67000008
   14.88249969  163.25500488    4.90999985    2.67000008
   14.88833332  163.25500488    4.90999985    2.67000008
   14.89249992  145.64700317    4.90999985    2.67000008
   14.89583302  154.57800293    4.90999985    2.67000008
   14.89888859  146.35499573    4.90999985    2.67000008
   14.90222168  148.22999573    4.90999985    2.67000008
   14.90555477  145.80599976    4.90999985    2.67000008
   14.90861034  135.91000366    4.90999985    2.67000008
   14.91194439  135.25399780    4.90999985    2.67000008
   14.91499996  156.16200256    4.90999985    2.67000008
   14.91833401  135.74499512    4.90999985    2.67000008
   14.92166710  141.77999878    4.90999985    2.67000008
   14.92472267  157.49000549    4.90999985    2.67000008
   14.92555618  140.60099792    4.90999985    2.67000008
   14.93111134  140.60099792    4.90999985    2.67000008
   14.93527794  140.03799438    4.90999985    2.67000008
   14.93861103  150.89999390    4.90999985    2.67000008
   14.94166660  143.39300537    4.90999985    2.67000008
   14.94499969  142.74299622    4.90999985    2.67000008
   14.94833374  143.56500244    4.90999985    2.67000008
   14.95138836  146.25300598    4.90999985    2.67000008
   14.95472240  155.10899353    4.90999985    2.67000008
   14.95805550  149.12100220    4.90999985    2.67000008
   14.95888901  155.01400757    4.90999985    2.67000008
   14.96138859  149.98199463    4.90999985    2.67000008
   14.96472168  146.58599854    4.90999985    2.67000008
   14.96805477  150.39700317    4.90999985    2.67000008
   14.97416592  150.39700317    4.90999985    2.67000008
   14.97805500  141.96200562    4.90999985    2.67000008
   14.98138809  145.72799683    4.90999985    2.67000008
   14.98472214  135.54100037    4.90999985    2.67000008
   14.98777771  149.12500000    4.90999985    2.67000008
   14.99111176  145.34300232    4.90999985    2.67000008
   14.99222279  133.92300415    4.90999985    2.67000008
   14.99472237  136.23899841    4.90999985    2.67000008
   14.99805546  135.57400513    4.90999985    2.67000008
   15.00138855  146.08000183    4.90999985    2.67000008
   15.00444412  148.61700439    4.90999985    2.67000008
   15.00777817  144.37500000    4.90999985    2.67000008
   15.01111126  143.85200500    4.90999985    2.67000008
   15.01694393  143.85200500    4.90999985    2.67000008
   15.02111053  155.10899353    4.90999985    2.67000008
   15.02416611  140.37899780    4.90999985    2.67000008
   15.02555561  142.16799927    4.90999985    2.67000008
   15.02777767  138.23100281    4.90999985    2.67000008
   15.03111076  139.10800171    4.90999985    2.67000008
   15.03444481  144.96699524    4.90999985    2.67000008
   15.03750038  152.11399841    4.90999985    2.67000008
   15.04083347  152.33599854    4.90999985    2.67000008
   15.04416752  140.71000671    4.90999985    2.67000008
   15.04722309  133.46699524    4.90999985    2.67000008
   15.05055618  146.02200317    4.90999985    2.67000008
   15.05361176  146.73500061    4.90999985    2.67000008
   15.05972195  146.73500061    4.90999985    2.67000008
   15.06388950  147.40699768    4.90999985    2.67000008
   15.06722260  150.42300415    4.90999985    2.67000008
   15.07027817  143.10000610    4.90999985    2.67000008
   15.07361126  138.27499390    4.90999985    2.67000008
   15.07666683  148.38000488    4.90999985    2.67000008
   15.07999992  135.66299438    4.90999985    2.67000008
   15.08333302  129.88000488    4.90999985    2.67000008
   15.08638859  146.63699341    4.90999985    2.67000008
   15.08972168  144.58700562    4.90999985    2.67000008
   15.09222221  156.98100281    4.90999985    2.67000008
   15.09333324  156.10800171    4.90999985    2.67000008
   15.09666634  153.49000549    4.90999985    2.67000008
   15.10249996  153.49000549    4.90999985    2.67000008
   15.10666752  135.15100098    4.90999985    2.67000008
   15.11000061  178.53100586    4.90999985    2.67000008
   15.11305618  185.28199768    4.90999985    2.67000008
   15.11638927  172.29200745    4.90999985    2.67000008
   15.11972237  180.51699829    4.90999985    2.67000008
   15.12277794  211.76100159    4.90999985    2.67000008
   15.12555599  223.23300171    4.90999985    2.67000008
   15.12638855  189.13999939    4.90999985    2.67000008
   15.12972260  223.78799438    4.90999985    2.67000008
   15.13305569  210.02200317    4.90999985    2.67000008
   15.13611126  186.82099915    4.90999985    2.67000008
   15.13944435  229.41499329    4.90999985    2.67000008
   15.14555550  229.41499329    4.90999985    2.67000008
   15.14944458  218.37199402    4.90999985    2.67000008
   15.15277767  259.46600342    4.90999985    2.67000008
   15.15611076  268.69000244    4.90999985    2.67000008
   15.15888882  191.74099731    4.90999985    2.67000008
   15.15944386  246.60200500    4.90999985    2.67000008
   15.16277695  219.73399353    4.90999985    2.67000008
   15.16611099  241.99099731    4.90999985    2.67000008
   15.16916656  267.64801025    4.90999985    2.67000008
   15.17250061  254.99000549    4.90999985    2.67000008
   15.17583370  237.08799744    4.90999985    2.67000008
   15.17888927  229.28700256    4.90999985    2.67000008
   15.18222237  242.59800720    4.90999985    2.67000008
   15.18833351  242.59800720    4.90999985    2.67000008
   15.19250011  193.80200195    4.90999985    2.67000008
   15.19555569  258.38400269    4.90999985    2.67000008
   15.19888878  174.28999329    4.90999985    2.67000008
   15.20222187  242.25100708    4.90999985    2.67000008
   15.20527744  195.96000671    4.90999985    2.67000008
   15.20861053  206.79400635    4.90999985    2.67000008
   15.21166611  220.11099243    4.90999985    2.67000008
   15.21500015  246.21299744    4.90999985    2.67000008
   15.21833324  230.20700073    4.90999985    2.67000008
   15.22138882  176.75799561    4.90999985    2.67000008
   15.22472191  202.68299866    4.90999985    2.67000008
   15.22555542  180.89399719    4.90999985    2.67000008
   15.23111057  180.89399719    4.90999985    2.67000008
   15.23527813  166.06700134    4.90999985    2.67000008
   15.23861122  221.16099548    4.90999985    2.67000008
   15.24166679  245.40899658    4.90999985    2.67000008
   15.24499989  233.45300293    4.90999985    2.67000008
   15.24833393  235.78799438    4.90999985    2.67000008
   15.25138855  200.52699280    4.90999985    2.67000008
   15.25472260  215.62699890    4.90999985    2.67000008
   15.25805569  205.75199890    4.90999985    2.67000008
   15.25888920  205.99200439    4.90999985    2.67000008
   15.26166630  190.72000122    4.90999985    2.67000008
   15.26472187  183.01800537    4.90999985    2.67000008
   15.26805496  187.73399353    4.90999985    2.67000008
   15.27388859  187.73399353    4.90999985    2.67000008
   15.27805519  189.04800415    4.90999985    2.67000008
   15.28138828  193.36599731    4.90999985    2.67000008
   15.28444481  197.52499390    4.90999985    2.67000008
   15.28777790  206.90699768    4.90999985    2.67000008
   15.29111195  183.78199768    4.90999985    2.67000008
   15.29222298  221.60000610    4.90999985    2.67000008
   15.29472256  214.28900146    4.90999985    2.67000008
   15.29777813  181.26699829    4.90999985    2.67000008
   15.30111122  180.20899963    4.90999985    2.67000008
   15.30416679  194.01800537    4.90999985    2.67000008
   15.30749989  203.85899353    4.90999985    2.67000008
   15.31083393  185.96899414    4.90999985    2.67000008
   15.31694412  185.96899414    4.90999985    2.67000008
   15.32083321  181.44799805    4.90999985    2.67000008
   15.32416630  192.59899902    4.90999985    2.67000008
   15.32555580  188.54800415    4.90999985    2.67000008
   15.32805538  181.66000366    4.90999985    2.67000008
   15.33111095  192.95100403    4.90999985    2.67000008
   15.33444405  176.03100586    4.90999985    2.67000008
   15.33749962  172.66900635    4.90999985    2.67000008
   15.34083271  176.42599487    4.90999985    2.67000008
   15.34416676  177.28199768    4.90999985    2.67000008
   15.34722233  152.72799683    4.90999985    2.67000008
   15.35055637  183.10299683    4.90999985    2.67000008
   15.35388947  174.07200623    4.90999985    2.67000008
   15.35972214  174.07200623    4.90999985    2.67000008
   15.36388969  183.78700256    4.90999985    2.67000008
   15.36694431  171.22900391    4.90999985    2.67000008
   15.37027836  173.37300110    4.90999985    2.67000008
   15.37361145  168.00700378    4.90999985    2.67000008
   15.37666702  181.58999634    4.90999985    2.67000008
   15.38000011  163.77000427    4.90999985    2.67000008
   15.38305569  170.81599426    4.90999985    2.67000008
   15.38638878  168.87300110    4.90999985    2.67000008
   15.38972187  160.16000366    4.90999985    2.67000008
   15.39222240  160.18299866    4.90999985    2.67000008
   15.41277695  160.18299866    4.90999985    2.67000008
   15.41694450  149.42599487    4.90999985    2.67000008
   15.42027855  171.00399780    4.90999985    2.67000008
   15.42333412  152.73899841    4.90999985    2.67000008
   15.42555618  155.22799683    4.90999985    2.67000008
   15.42722225  146.25199890    4.90999985    2.67000008
   15.43027782  157.71800232    4.90999985    2.67000008
   15.43361092  167.56300354    4.90999985    2.67000008
   15.43694496  156.00500488    4.90999985    2.67000008
   15.44000053  158.40400696    4.90999985    2.67000008
   15.44333363  163.74400330    4.90999985    2.67000008
   15.44666672  135.82800293    4.90999985    2.67000008
   15.44972229  152.02400208    4.90999985    2.67000008
   15.45555496  152.02400208    4.90999985    2.67000008
   15.45972157  158.18400574    4.90999985    2.67000008
   15.46305561  174.51400757    4.90999985    2.67000008
   15.46611118  154.00599670    4.90999985    2.67000008
   15.46944427  144.53100586    4.90999985    2.67000008
   15.47249985  146.79600525    4.90999985    2.67000008
   15.47583294  151.83599854    4.90999985    2.67000008
   15.47916603  133.44700623    4.90999985    2.67000008
   15.48222160  160.06500244    4.90999985    2.67000008
   15.48555565  149.34800720    4.90999985    2.67000008
   15.48888874  168.74699402    4.90999985    2.67000008
   15.49194431  161.31599426    4.90999985    2.67000008
   15.49250031  176.03599548    4.90999985    2.67000008
   15.49833393  176.03599548    4.90999985    2.67000008
   15.50249958  143.56700134    4.90999985    2.67000008
   15.50583363  157.96699524    4.90999985    2.67000008
   15.50916672  153.69799805    4.90999985    2.67000008
   15.51222229  154.50000000    4.90999985    2.67000008
   15.51555538  150.84500122    4.90999985    2.67000008
   15.51861095  145.73399353    4.90999985    2.67000008
   15.52194405  148.89900208    4.90999985    2.67000008
   15.52527714  156.60600281    4.90999985    2.67000008
   15.52583313  164.96400452    4.90999985    2.67000008
   15.52888870  169.74299622    4.90999985    2.67000008
   15.53194427  161.88400269    4.90999985    2.67000008
   15.53527832  152.06900024    4.90999985    2.67000008
   15.54138947  152.06900024    4.90999985    2.67000008
   15.54527855  153.77799988    4.90999985    2.67000008
   15.54861164  155.53799438    4.90999985    2.67000008
   15.55194473  146.36799622    4.90999985    2.67000008
   15.55500031  142.29400635    4.90999985    2.67000008
   15.55833340  145.98899841    4.90999985    2.67000008
   15.55916691  143.18600464    4.90999985    2.67000008
   15.56194496  141.42399597    4.90999985    2.67000008
   15.56500053  136.42100525    4.90999985    2.67000008
   15.56833363  139.25399780    4.90999985    2.67000008
   15.57166672  135.82899475    4.90999985    2.67000008
   15.57472229  138.90899658    4.90999985    2.67000008
   15.57805538  136.24000549    4.90999985    2.67000008
   15.58416653  136.24000549    4.90999985    2.67000008
   15.58833313  136.43899536    4.90999985    2.67000008
   15.59138870  131.88999939    4.90999985    2.67000008
   15.59249973  141.24800110    4.90999985    2.67000008
   15.59527779  152.08700562    4.90999985    2.67000008
   15.59833336  139.00799561    4.90999985    2.67000008
   15.60166740  139.46899414    4.90999985    2.67000008
   15.60500050  134.84500122    4.90999985    2.67000008
   15.60805607  135.55999756    4.90999985    2.67000008
   15.61138916  139.07699585    4.90999985    2.67000008
   15.61472225  140.79400635    4.90999985    2.67000008
   15.61777782  137.83399963    4.90999985    2.67000008
   15.62111092  141.21000671    4.90999985    2.67000008
   15.62694454  141.21000671    4.90999985    2.67000008
   15.63111115  142.11999512    4.90999985    2.67000008
   15.63444424  126.97299957    4.90999985    2.67000008
   15.63749981  145.27400208    4.90999985    2.67000008
   15.64083290  156.65699768    4.90999985    2.67000008
   15.64388847  154.84399414    4.90999985    2.67000008
   15.64722252  140.56799316    4.90999985    2.67000008
   15.65055561  139.52999878    4.90999985    2.67000008
   15.65361118  162.57400513    4.90999985    2.67000008
   15.65694427  157.09700012    4.90999985    2.67000008
   15.65916634  147.60200500    4.90999985    2.67000008
   15.66055489  210.92700195    4.90999985    2.67000008
   15.66361046  176.68800354    4.90999985    2.67000008
   15.66972256  176.68800354    4.90999985    2.67000008
   15.67388916  181.94700623    4.90999985    2.67000008
   15.67722225  136.65100098    4.90999985    2.67000008
   15.68027782  165.62800598    4.90999985    2.67000008
   15.68361092  144.86199951    4.90999985    2.67000008
   15.68694496  139.72500610    4.90999985    2.67000008
   15.69000053  134.80900574    4.90999985    2.67000008
   15.69250011  131.23100281    4.90999985    2.67000008
   15.69388866  139.18400574    4.90999985    2.67000008
   15.69694424  134.78300476    4.90999985    2.67000008
   15.70027733  131.45300293    4.90999985    2.67000008
   15.70361137  134.56799316    4.90999985    2.67000008
   15.70666695  134.70599365    4.90999985    2.67000008
   15.71277714  134.70599365    4.90999985    2.67000008
   15.71666622  134.37800598    4.90999985    2.67000008
   15.71999931  133.94900513    4.90999985    2.67000008
   15.72333336  135.06599426    4.90999985    2.67000008
   15.72583294  132.51800537    4.90999985    2.67000008
   15.72694397  135.15499878    4.90999985    2.67000008
   15.72999954  135.46000671    4.90999985    2.67000008
   15.73333359  129.94700623    4.90999985    2.67000008
   15.73666668  131.44599915    4.90999985    2.67000008
   15.73972225  138.09399414    4.90999985    2.67000008
   15.74305534  129.42300415    4.90999985    2.67000008
   15.74638939  135.69599915    4.90999985    2.67000008
   15.74944496  134.17199707    4.90999985    2.67000008
   15.75555515  134.17199707    4.90999985    2.67000008
   15.75972176  130.36000061    4.90999985    2.67000008
   15.76277733  134.51300049    4.90999985    2.67000008
   15.76611137  136.75900269    4.90999985    2.67000008
   15.76944447  131.48100281    4.90999985    2.67000008
   15.77250004  136.32600403    4.90999985    2.67000008
   15.77583313  133.37199402    4.90999985    2.67000008
   15.77888870  133.91400146    4.90999985    2.67000008
   15.78222179  131.02000427    4.90999985    2.67000008
   15.78555584  136.55700684    4.90999985    2.67000008
   15.78861141  136.20500183    4.90999985    2.67000008
   15.79194450  133.48599243    4.90999985    2.67000008
   15.79250050  132.00000000    4.90999985    2.67000008
   15.79833412  132.00000000    4.90999985    2.67000008
   15.80249977  140.07200623    4.90999985    2.67000008
   15.80583382  139.54200745    4.90999985    2.67000008
   15.80888939  137.10400391    4.90999985    2.67000008
   15.81222248  135.91200256    4.90999985    2.67000008
   15.81527805  140.42500305    4.90999985    2.67000008
   15.81861115  130.75199890    4.90999985    2.67000008
   15.82194424  137.90299988    4.90999985    2.67000008
   15.82499981  140.25999451    4.90999985    2.67000008
   15.82583332  141.00799561    4.90999985    2.67000008
   15.82861137  131.38099670    4.90999985    2.67000008
   15.83194447  137.22799683    4.90999985    2.67000008
   15.83500004  134.41400146    4.90999985    2.67000008
   15.84111118  134.41400146    4.90999985    2.67000008
   15.84527779  138.83000183    4.90999985    2.67000008
   15.84861088  142.11799622    4.90999985    2.67000008
   15.85194492  137.25599670    4.90999985    2.67000008
   15.85500050  140.42599487    4.90999985    2.67000008
   15.85833359  143.97999573    4.90999985    2.67000008
   15.85916710  144.34100342    4.90999985    2.67000008
   15.86194515  145.30299377    4.90999985    2.67000008
   15.86527824  148.80799866    4.90999985    2.67000008
   15.86833382  140.88499451    4.90999985    2.67000008
   15.87166691  139.56199646    4.90999985    2.67000008
   15.87472248  145.28500366    4.90999985    2.67000008
   15.87805557  144.55400085    4.90999985    2.67000008
   15.88416672  144.55400085    4.90999985    2.67000008
   15.88805580  148.10400391    4.90999985    2.67000008
   15.89138889  132.02099609    4.90999985    2.67000008
   15.89249992  141.52299500    4.90999985    2.67000008
   15.89499950  146.96600342    4.90999985    2.67000008
   15.89833355  138.18200684    4.90999985    2.67000008
   15.90138817  139.36999512    4.90999985    2.67000008
   15.90472221  136.70100403    4.90999985    2.67000008
   15.90777779  145.13200378    4.90999985    2.67000008
   15.91111088  141.18200684    4.90999985    2.67000008
   15.91444397  142.93600464    4.90999985    2.67000008
   15.91750050  138.17199707    4.90999985    2.67000008
   15.92083359  137.20899963    4.90999985    2.67000008
   15.92694473  137.20899963    4.90999985    2.67000008
   15.93111134  140.22200012    4.90999985    2.67000008
   15.93416691  137.45899963    4.90999985    2.67000008
   15.93750000  129.83200073    4.90999985    2.67000008
   15.94083309  137.56700134    4.90999985    2.67000008
   15.94388866  147.79400635    4.90999985    2.67000008
   15.94722271  134.86700439    4.90999985    2.67000008
   15.95055580  136.88200378    4.90999985    2.67000008
   15.95361137  138.66099548    4.90999985    2.67000008
   15.95694447  146.26300049    4.90999985    2.67000008
   15.95916653  142.68899536    4.90999985    2.67000008
   15.96055508  138.30099487    4.90999985    2.67000008
   15.96388912  149.16900635    4.90999985    2.67000008
   15.96972179  149.16900635    4.90999985    2.67000008
   15.97388840  141.35699463    4.90999985    2.67000008
   15.97722149  143.86999512    4.90999985    2.67000008
   15.98027706  127.62100220    4.90999985    2.67000008
   15.98361111  139.96699524    4.90999985    2.67000008
   15.98666668  137.58500671    4.90999985    2.67000008
   15.99000072  138.67300415    4.90999985    2.67000008
   15.99250031  134.50000000    4.90999985    2.67000008
   15.99361134  136.46299744    4.90999985    2.67000008
   15.99694443  138.28100586    4.90999985    2.67000008
   16.00000000  137.21299744    4.90999985    2.67000008
   16.00333405  128.37699890    4.90999985    2.67000008
   16.00638962  126.60700226    4.90999985    2.67000008
   16.01250076  126.60700226    4.90999985    2.67000008
   16.01666641  135.10899353    4.90999985    2.67000008
   16.02000046  138.34700012    4.90999985    2.67000008
   16.02305603  128.70500183    4.90999985    2.67000008
   16.02583313  147.08700562    4.90999985    2.67000008
   16.02694511  145.31799316    4.90999985    2.67000008
   16.03027725  138.40499878    4.90999985    2.67000008
   16.03333282  138.33299255    4.90999985    2.67000008
   16.03666687  136.11799622    4.90999985    2.67000008
   16.03972244  135.44900513    4.90999985    2.67000008
   16.04305458  138.46499634    4.90999985    2.67000008
   16.04638863  141.49699402    4.90999985    2.67000008
   16.04944420  141.39599609    4.90999985    2.67000008
   16.05555534  141.39599609    4.90999985    2.67000008
   16.05944443  146.07200623    4.90999985    2.67000008
   16.06277657  137.19799805    4.90999985    2.67000008
   16.06611061  138.51199341    4.90999985    2.67000008
   16.06916809  129.86700439    4.90999985    2.67000008
   16.07250023  139.09899902    4.90999985    2.67000008
   16.07583427  136.98399353    4.90999985    2.67000008
   16.07888985  136.16700745    4.90999985    2.67000008
   16.08222389  132.17199707    4.90999985    2.67000008
   16.08527756  126.54199982    4.90999985    2.67000008
   16.08861160  133.36999512    4.90999985    2.67000008
   16.09194565  135.75100708    4.90999985    2.67000008
   16.09250069  143.73399353    4.90999985    2.67000008
   16.09833336  143.73399353    4.90999985    2.67000008
   16.10250092  144.13400269    4.90999985    2.67000008
   16.10555649  138.46600342    4.90999985    2.67000008
   16.10888863  135.89700317    4.90999985    2.67000008
   16.11222267  137.41900635    4.90999985    2.67000008
   16.11555672  138.43800354    4.90999985    2.67000008
   16.11861038  136.13699341    4.90999985    2.67000008
   16.12194443  140.04200745    4.90999985    2.67000008
   16.12500000  133.70899963    4.90999985    2.67000008
   16.12583351  128.86900330    4.90999985    2.67000008
   16.12861061  135.42599487    4.90999985    2.67000008
   16.13194466  140.10800171    4.90999985    2.67000008
   16.13500023  130.40299988    4.90999985    2.67000008
   16.14111137  130.40299988    4.90999985    2.67000008
   16.14527702  134.14199829    4.90999985    2.67000008
   16.14861107  135.64799500    4.90999985    2.67000008
   16.15166664  144.33799744    4.90999985    2.67000008
   16.15499878  135.32099915    4.90999985    2.67000008
   16.15805435  141.94900513    4.90999985    2.67000008
   16.15916634  142.05099487    4.90999985    2.67000008
   16.16166687  145.81900024    4.90999985    2.67000008
   16.16499901  138.77799988    4.90999985    2.67000008
   16.16833305  140.69599915    4.90999985    2.67000008
   16.17166519  137.61799622    4.90999985    2.67000008
   16.17472076  139.32600403    4.90999985    2.67000008
   16.17805481  133.12899780    4.90999985    2.67000008
   16.18388748  133.12899780    4.90999985    2.67000008
   16.18805504  132.50100708    4.90999985    2.67000008
   16.19138718  134.48800659    4.90999985    2.67000008
   16.19249916  137.19200134    4.90999985    2.67000008
   16.19499969  128.97999573    4.90999985    2.67000008
   16.19833183  130.91099548    4.90999985    2.67000008
   16.20166779  132.91600037    4.90999985    2.67000008
   16.20499992  142.85899353    4.90999985    2.67000008
   16.20805550  129.37100220    4.90999985    2.67000008
   16.21138954  129.29200745    4.90999985    2.67000008
   16.21472359  130.45300293    4.90999985    2.67000008
   16.21777916  136.63600159    4.90999985    2.67000008
   16.22111130  132.94700623    4.90999985    2.67000008
   16.22694588  132.94700623    4.90999985    2.67000008
   16.23083305  128.16900635    4.90999985    2.67000008
   16.23416710  126.65299988    4.90999985    2.67000008
   16.23750114  131.18499756    4.90999985    2.67000008
   16.24055672  129.26100159    4.90999985    2.67000008
   16.24388885  128.92999268    4.90999985    2.67000008
   16.24722290  133.23399353    4.90999985    2.67000008
   16.25027847  134.86799622    4.90999985    2.67000008
   16.25361061  135.39999390    4.90999985    2.67000008
   16.25694466  135.72000122    4.90999985    2.67000008
   16.25916672  131.65199280    4.90999985    2.67000008
   16.26027870  135.91299438    4.90999985    2.67000008
   16.26361084  137.26300049    4.90999985    2.67000008
   16.26972198  137.26300049    4.90999985    2.67000008
   16.27388954  134.11399841    4.90999985    2.67000008
   16.27694511  134.18699646    4.90999985    2.67000008
   16.28027725  141.37899780    4.90999985    2.67000008
   16.28361130  133.61399841    4.90999985    2.67000008
   16.28666687  128.44500732    4.90999985    2.67000008
   16.28999901  129.97900391    4.90999985    2.67000008
   16.29249954  130.74899292    4.90999985    2.67000008
   16.29361153  130.08200073    4.90999985    2.67000008
   16.29694366  132.68899536    4.90999985    2.67000008
   16.29999924  130.13600159    4.90999985    2.67000008
   16.30333328  131.01600647    4.90999985    2.67000008
   16.30666542  126.58899689    4.90999985    2.67000008
   16.31250000  126.58899689    4.90999985    2.67000008
   16.31666756  128.69200134    4.90999985    2.67000008
   16.32000160  126.52899933    4.90999985    2.67000008
   16.32305717  128.72099304    4.90999985    2.67000008
   16.32611275  139.08000183    4.90999985    2.67000008
   16.32666779  132.59100342    4.90999985    2.67000008
   16.33000183  138.43699646    4.90999985    2.67000008
   16.33305550  138.58500671    4.90999985    2.67000008
   16.33638954  134.16400146    4.90999985    2.67000008
   16.33972359  137.64500427    4.90999985    2.67000008
   16.34277916  126.45600128    4.90999985    2.67000008
   16.34611130  131.73100281    4.90999985    2.67000008
   16.34944534  139.40100098    4.90999985    2.67000008
   16.35527802  139.40100098    4.90999985    2.67000008
   16.35944557  135.13699341    4.90999985    2.67000008
   16.36277771  125.94999695    4.90999985    2.67000008
   16.36583328  132.25500488    4.90999985    2.67000008
   16.36916733  132.39599609    4.90999985    2.67000008
   16.37249947  127.88099670    4.90999985    2.67000008
   16.37555504  129.49699402    4.90999985    2.67000008
   16.37888908  133.66099548    4.90999985    2.67000008
   16.38222313  132.86900330    4.90999985    2.67000008
   16.38527679  128.32299805    4.90999985    2.67000008
   16.38861084  125.63400269    4.90999985    2.67000008
   16.39194489  130.71899414    4.90999985    2.67000008
   16.39277840  134.17199707    4.90999985    2.67000008
   16.39833260  134.17199707    4.90999985    2.67000008
   16.40250015  135.56900024    4.90999985    2.67000008
   16.40555573  125.96499634    4.90999985    2.67000008
   16.40888786  132.30099487    4.90999985    2.67000008
   16.42638779  137.75799561    4.90999985    2.67000008
   16.42888832  133.79299927    4.90999985    2.67000008
   16.43194389  134.49400330    4.90999985    2.67000008
   16.43527603  132.92100525    4.90999985    2.67000008
   16.44138718  132.92100525    4.90999985    2.67000008
   16.44527626  132.02299500    4.90999985    2.67000008
   16.44861031  132.17900085    4.90999985    2.67000008
   16.45194435  130.03199768    4.90999985    2.67000008
   16.45499992  129.98100281    4.90999985    2.67000008
   16.45833397  133.48100281    4.90999985    2.67000008
   16.45972252  131.15499878    4.90999985    2.67000008
   16.46222305  133.72300720    4.90999985    2.67000008
   16.46527863  129.10699463    4.90999985    2.67000008
   16.46861076  129.67999268    4.90999985    2.67000008
   16.47166634  128.74800110    4.90999985    2.67000008
   16.47500038  133.39399719    4.90999985    2.67000008
   16.47833443  135.92999268    4.90999985    2.67000008
   16.48416710  135.92999268    4.90999985    2.67000008
   16.48833275  132.43299866    4.90999985    2.67000008
   16.49138832  135.29299927    4.90999985    2.67000008
   16.49305534  126.00800323    4.90999985    2.67000008
   16.49500084  126.81099701    4.90999985    2.67000008
   16.49833298  136.58799744    4.90999985    2.67000008
   16.50166702  124.86799622    4.90999985    2.67000008
   16.50472260  127.26899719    4.90999985    2.67000008
   16.50805473  125.32700348    4.90999985    2.67000008
   16.51111031  134.88600159    4.90999985    2.67000008
   16.51444435  129.17599487    4.90999985    2.67000008
   16.51777840  145.56900024    4.90999985    2.67000008
   16.52083397  130.63600159    4.90999985    2.67000008
   16.52694511  130.63600159    4.90999985    2.67000008
   16.53111076  165.10800171    4.90999985    2.67000008
   16.53416634  173.04600525    4.90999985    2.67000008
   16.53750038  154.71800232    4.90999985    2.67000008
   16.54083252  169.87800598    4.90999985    2.67000008
   16.54388809  149.59599304    4.90999985    2.67000008
   16.54722214  153.17999268    4.90999985    2.67000008
   16.55055428  143.35400391    4.90999985    2.67000008
   16.55360985  153.19400024    4.90999985    2.67000008
   16.55694389  153.95399475    4.90999985    2.67000008
   16.55972099  146.38499451    4.90999985    2.67000008
   16.56055450  137.97300720    4.90999985    2.67000008
   16.56388855  150.54800415    4.90999985    2.67000008
   16.56972313  150.54800415    4.90999985    2.67000008
   16.57389069  145.01699829    4.90999985    2.67000008
   16.57722282  151.47900391    4.90999985    2.67000008
   16.58027840  151.44099426    4.90999985    2.67000008
   16.58361244  146.05000305    4.90999985    2.67000008
   16.58694458  154.60800171    4.90999985    2.67000008
   16.59000015  165.30400085    4.90999985    2.67000008
   16.59305573  158.77200317    4.90999985    2.67000008
   16.59361267  155.80099487    4.90999985    2.67000008
   16.59694481  155.19599915    4.90999985    2.67000008
   16.60027885  159.38999939    4.90999985    2.67000008
   16.60333443  160.21600342    4.90999985    2.67000008
   16.60666656  146.20199585    4.90999985    2.67000008
   16.61277771  146.20199585    4.90999985    2.67000008
   16.61666679  155.02799988    4.90999985    2.67000008
   16.62000084  142.63900757    4.90999985    2.67000008
   16.62333298  146.52600098    4.90999985    2.67000008
   16.62638855  140.68499756    4.90999985    2.67000008
   16.62666702  141.16700745    4.90999985    2.67000008
   16.63000107  151.16499329    4.90999985    2.67000008
   16.63333321  146.55799866    4.90999985    2.67000008
   16.63666725  138.74499512    4.90999985    2.67000008
   16.63972282  139.11900330    4.90999985    2.67000008
   16.64305496  135.86799622    4.90999985    2.67000008
   16.64611053  140.79899597    4.90999985    2.67000008
   16.64944458  140.90800476    4.90999985    2.67000008
   16.65555573  140.90800476    4.90999985    2.67000008
   16.65972137  150.45599365    4.90999985    2.67000008
   16.66027832  144.45500183    4.90999985    2.67000008
   16.66333389  146.25500488    4.90999985    2.67000008
   16.66666603  145.57000732    4.90999985    2.67000008
   16.66972160  134.82200623    4.90999985    2.67000008
   16.67305565  145.80900574    4.90999985    2.67000008
   16.67638779  138.87500000    4.90999985    2.67000008
   16.67944336  141.00799561    4.90999985    2.67000008
   16.68277740  138.04899597    4.90999985    2.67000008
   16.68610954  135.72300720    4.90999985    2.67000008
   16.68916512  139.01899719    4.90999985    2.67000008
   16.69249916  137.42799377    4.90999985    2.67000008
   16.69305420  131.79400635    4.90999985    2.67000008
   16.69833183  131.79400635    4.90999985    2.67000008
   16.70250130  128.52200317    4.90999985    2.67000008
   16.70555687  133.23100281    4.90999985    2.67000008
   16.70888901  133.63400269    4.90999985    2.67000008
   16.71222305  138.62100220    4.90999985    2.67000008
   16.71527863  139.30400085    4.90999985    2.67000008
   16.71861076  142.22999573    4.90999985    2.67000008
   16.72194481  137.74299622    4.90999985    2.67000008
   16.72500038  130.79800415    4.90999985    2.67000008
   16.72638893  133.96899414    4.90999985    2.67000008
   16.72861099  133.55200195    4.90999985    2.67000008
   16.73194504  142.55099487    4.90999985    2.67000008
   16.73527718  145.75000000    4.90999985    2.67000008
   16.74111176  145.75000000    4.90999985    2.67000008
   16.74527740  137.06100464    4.90999985    2.67000008
   16.74861145  138.49299622    4.90999985    2.67000008
   16.75166702  134.23800659    4.90999985    2.67000008
   16.75499916  146.04299927    4.90999985    2.67000008
   16.75833321  138.16900635    4.90999985    2.67000008
   16.75972176  139.78599548    4.90999985    2.67000008
   16.76166725  142.23500061    4.90999985    2.67000008
   16.76499939  150.26699829    4.90999985    2.67000008
   16.76833344  148.25999451    4.90999985    2.67000008
   16.77138901  145.21299744    4.90999985    2.67000008
   16.77472115  140.76199341    4.90999985    2.67000008
   16.77805519  164.71200562    4.90999985    2.67000008
   16.78388786  164.71200562    4.90999985    2.67000008
   16.78805542  156.97500610    4.90999985    2.67000008
   16.79138756  141.80400085    4.90999985    2.67000008
   16.79305458  155.41400146    4.90999985    2.67000008
   16.79500008  160.09700012    4.90999985    2.67000008
   16.79833221  162.13099670    4.90999985    2.67000008
   16.80166626  129.95500183    4.90999985    2.67000008
   16.80472183  139.58599854    4.90999985    2.67000008
   16.80805397  161.36500549    4.90999985    2.67000008
   16.81138802  159.18699646    4.90999985    2.67000008
   16.81444359  157.26300049    4.90999985    2.67000008
   16.81777954  185.24800110    4.90999985    2.67000008
   16.82083511  133.15199280    4.90999985    2.67000008
   16.82694626  133.15199280    4.90999985    2.67000008
   16.83111191  139.42700195    4.90999985    2.67000008
   16.83416748  133.50300598    4.90999985    2.67000008
   16.83750153  141.75300598    4.90999985    2.67000008
   16.84055710  130.48699951    4.90999985    2.67000008
   16.84388924  126.54499817    4.90999985    2.67000008
   16.84722328  132.91799927    4.90999985    2.67000008
   16.85027885  153.54200745    4.90999985    2.67000008
   16.85361099  135.48699951    4.90999985    2.67000008
   16.85694504  161.83099365    4.90999985    2.67000008
   16.85972214  138.08700562    4.90999985    2.67000008
   16.86027908  141.81700134    4.90999985    2.67000008
   16.86361122  138.72300720    4.90999985    2.67000008
   16.86972237  138.72300720    4.90999985    2.67000008
   16.87388992  161.00500488    4.90999985    2.67000008
   16.87694550  143.85299683    4.90999985    2.67000008
   16.88027763  136.26600647    4.90999985    2.67000008
   16.88361168  138.08200073    4.90999985    2.67000008
   16.88666725  142.15499878    4.90999985    2.67000008
   16.88999939  152.47000122    4.90999985    2.67000008
   16.89305496  149.00100708    4.90999985    2.67000008
   16.89361191  176.57000732    4.90999985    2.67000008
   16.89694405  138.83700562    4.90999985    2.67000008
   16.90027809  159.51600647    4.90999985    2.67000008
   16.90361023  149.44700623    4.90999985    2.67000008
   16.90694427  154.08700562    4.90999985    2.67000008
   16.91250038  154.08700562    4.90999985    2.67000008
   16.91666603  167.03399658    4.90999985    2.67000008
   16.92000008  160.65100098    4.90999985    2.67000008
   16.92305565  189.05700684    4.90999985    2.67000008
   16.92638779  194.13000488    4.90999985    2.67000008
   16.92694473  160.91900635    4.90999985    2.67000008
   16.93027687  181.22900391    4.90999985    2.67000008
   16.93333244  182.16999817    4.90999985    2.67000008
   16.93666649  191.86799622    4.90999985    2.67000008
   16.93999863  155.56599426    4.90999985    2.67000008
   16.94305420  149.22999573    4.90999985    2.67000008
   16.94638824  191.76800537    4.90999985    2.67000008
   16.94972038  204.22500610    4.90999985    2.67000008
   16.95527840  204.22500610    4.90999985    2.67000008
   16.95944595  163.05499268    4.90999985    2.67000008
   16.96000099  191.38699341    4.90999985    2.67000008
   16.96333504  181.78399658    4.90999985    2.67000008
   16.96666718  220.27200317    4.90999985    2.67000008
   16.96972275  156.08799744    4.90999985    2.67000008
   16.97305679  176.22099304    4.90999985    2.67000008
   16.97638893  166.89999390    4.90999985    2.67000008
   16.97944450  196.07499695    4.90999985    2.67000008
   16.98277855  209.32499695    4.90999985    2.67000008
   16.98583412  227.12500000    4.90999985    2.67000008
   16.98916626  182.50399780    4.90999985    2.67000008
   16.99250031  194.68899536    4.90999985    2.67000008
   16.99333382  191.00100708    4.90999985    2.67000008
   16.99833298  191.00100708    4.90999985    2.67000008
   17.00250053  180.42900085    4.90999985    2.67000008
   17.00555611  169.07499695    4.90999985    2.67000008
   17.00888824  186.07099915    4.90999985    2.67000008
   17.01194382  161.11000061    4.90999985    2.67000008
   17.01527786  225.36700439    4.90999985    2.67000008
   17.01861000  215.58599854    4.90999985    2.67000008
   17.02166557  195.64900208    4.90999985    2.67000008
   17.02499962  198.91099548    4.90999985    2.67000008
   17.02666664  206.85600281    4.90999985    2.67000008
   17.02861023  204.46000671    4.90999985    2.67000008
   17.03194427  200.97900391    4.90999985    2.67000008
   17.03499985  173.68699646    4.90999985    2.67000008
   17.04111099  173.68699646    4.90999985    2.67000008
   17.04527664  199.80400085    4.90999985    2.67000008
   17.04833221  193.77000427    4.90999985    2.67000008
   17.05166626  198.71699524    4.90999985    2.67000008
   17.05499840  205.09500122    4.90999985    2.67000008
   17.05805397  194.21600342    4.90999985    2.67000008
   17.05999947  189.29299927    4.90999985    2.67000008
   17.06166649  191.75000000    4.90999985    2.67000008
   17.06499863  197.89999390    4.90999985    2.67000008
   17.06805611  197.68200684    4.90999985    2.67000008
   17.07139015  174.43899536    4.90999985    2.67000008
   17.07444572  228.38099670    4.90999985    2.67000008
   17.07777786  171.44500732    4.90999985    2.67000008
   17.08416748  171.44500732    4.90999985    2.67000008
   17.08833313  212.66200256    4.90999985    2.67000008
   17.09138870  182.63499451    4.90999985    2.67000008
   17.09333420  256.70401001    4.90999985    2.67000008
   17.09500122  202.94200134    4.90999985    2.67000008
   17.09833336  181.59199524    4.90999985    2.67000008
   17.10138893  191.43699646    4.90999985    2.67000008
   17.10472298  202.90199280    4.90999985    2.67000008
   17.10805511  230.44099426    4.90999985    2.67000008
   17.11111069  137.42300415    4.90999985    2.67000008
   17.11444473  205.65199280    4.90999985    2.67000008
   17.11750031  198.99099731    4.90999985    2.67000008
   17.12083435  212.70500183    4.90999985    2.67000008
   17.12666702  212.70500183    4.90999985    2.67000008
   17.13083267  184.11999512    4.90999985    2.67000008
   17.13416672  212.30099487    4.90999985    2.67000008
   17.13722229  214.87300110    4.90999985    2.67000008
   17.14055634  202.54899597    4.90999985    2.67000008
   17.14388847  200.75700378    4.90999985    2.67000008
   17.14694405  197.87899780    4.90999985    2.67000008
   17.15027809  178.66299438    4.90999985    2.67000008
   17.15361023  202.83900452    4.90999985    2.67000008
   17.15666580  187.80799866    4.90999985    2.67000008
   17.15999985  208.63000488    4.90999985    2.67000008
   17.16194344  216.22000122    4.90999985    2.67000008
   17.16361046  205.66900635    4.90999985    2.67000008
   17.16972160  205.66900635    4.90999985    2.67000008
   17.17361069  219.74499512    4.90999985    2.67000008
   17.17694473  202.45700073    4.90999985    2.67000008
   17.18027687  214.43099976    4.90999985    2.67000008
   17.18333244  227.10099792    4.90999985    2.67000008
   17.18666649  232.81900024    4.90999985    2.67000008
   17.18999863  243.33299255    4.90999985    2.67000008
   17.19305420  221.57200623    4.90999985    2.67000008
   17.19527626  186.67500305    4.90999985    2.67000008
   17.19666672  230.33500671    4.90999985    2.67000008
   17.20000076  207.23100281    4.90999985    2.67000008
   17.20305634  215.30799866    4.90999985    2.67000008
   17.20639038  242.36599731    4.90999985    2.67000008
   17.21250153  242.36599731    4.90999985    2.67000008
   17.21666718  219.66799927    4.90999985    2.67000008
   17.21972275  227.99000549    4.90999985    2.67000008
   17.22305679  213.40899658    4.90999985    2.67000008
   17.22638893  206.21499634    4.90999985    2.67000008
   17.22861099  207.13900757    4.90999985    2.67000008
   17.23000145  195.56300354    4.90999985    2.67000008
   17.23333359  229.06799316    4.90999985    2.67000008
   17.23638916  210.75300598    4.90999985    2.67000008
   17.23972321  192.66499329    4.90999985    2.67000008
   17.24277878  206.69099426    4.90999985    2.67000008
   17.24611092  219.58900452    4.90999985    2.67000008
   17.24944496  228.80499268    4.90999985    2.67000008
   17.25527763  228.80499268    4.90999985    2.67000008
   17.25944519  254.48199463    4.90999985    2.67000008
   17.26194382  255.62899780    4.90999985    2.67000008
   17.26305580  221.72000122    4.90999985    2.67000008
   17.26638794  214.42399597    4.90999985    2.67000008
   17.26944351  211.93899536    4.90999985    2.67000008
   17.27277756  216.46099854    4.90999985    2.67000008
   17.27583313  230.61799622    4.90999985    2.67000008
   17.27916718  219.17900085    4.90999985    2.67000008
   17.28249931  203.62300110    4.90999985    2.67000008
   17.28555489  210.50100708    4.90999985    2.67000008
   17.28888893  228.60499573    4.90999985    2.67000008
   17.29222107  191.55000305    4.90999985    2.67000008
   17.29805565  191.55000305    4.90999985    2.67000008
   17.30222130  203.29100037    4.90999985    2.67000008
   17.30555534  215.30099487    4.90999985    2.67000008
   17.30861092  185.76199341    4.90999985    2.67000008
   17.31194305  225.45399475    4.90999985    2.67000008
   17.31527710  198.11999512    4.90999985    2.67000008
   17.31861115  177.00599670    4.90999985    2.67000008
   17.32166672  187.39999390    4.90999985    2.67000008
   17.32500076  195.62699890    4.90999985    2.67000008
   17.32833481  196.45799255    4.90999985    2.67000008
   17.32916832  207.55400085    4.90999985    2.67000008
   17.33166695  182.32299805    4.90999985    2.67000008
   17.33500099  207.34599304    4.90999985    2.67000008
   17.34111214  207.34599304    4.90999985    2.67000008
   17.34500122  212.17900085    4.90999985    2.67000008
   17.34833336  252.59599304    4.90999985    2.67000008
   17.35166740  219.04100037    4.90999985    2.67000008
   17.35472298  231.91700745    4.90999985    2.67000008
   17.35805511  212.50100708    4.90999985    2.67000008
   17.36138916  228.91299438    4.90999985    2.67000008
   17.36250114  221.19599915    4.90999985    2.67000008
   17.36472321  201.18800354    4.90999985    2.67000008
   17.36805534  165.96800232    4.90999985    2.67000008
   17.37111092  198.60499573    4.90999985    2.67000008
   17.37444496  222.90699768    4.90999985    2.67000008
   17.37777710  204.03599548    4.90999985    2.67000008
   17.38388824  204.03599548    4.90999985    2.67000008
   17.38805580  228.65899658    4.90999985    2.67000008
   17.39111137  217.45500183    4.90999985    2.67000008
   17.39444351  223.40800476    4.90999985    2.67000008
   17.39583397  208.28199768    4.90999985    2.67000008
   17.39805603  195.40100098    4.90999985    2.67000008
   17.40138817  215.29899597    4.90999985    2.67000008
   17.40444374  181.57800293    4.90999985    2.67000008
   17.40777779  195.65699768    4.90999985    2.67000008
   17.41110992  195.00100708    4.90999985    2.67000008
   17.41416550  231.49200439    4.90999985    2.67000008
   17.41749954  217.50500488    4.90999985    2.67000008
   17.42055511  197.45199585    4.90999985    2.67000008
   17.42666626  197.45199585    4.90999985    2.67000008
   17.44499969  175.36900330    4.90999985    2.67000008
   17.44833183  187.43600464    4.90999985    2.67000008
   17.45166779  184.49299622    4.90999985    2.67000008
   17.45472336  189.52699280    4.90999985    2.67000008
   17.45805550  157.41799927    4.90999985    2.67000008
   17.46111107  214.51499939    4.90999985    2.67000008
   17.46444511  196.95599365    4.90999985    2.67000008
   17.46972275  196.95599365    4.90999985    2.67000008
   17.47389030  145.41600037    4.90999985    2.67000008
   17.47722244  170.28300476    4.90999985    2.67000008
   17.47805595  182.52799988    4.90999985    2.67000008
   17.48083305  215.24200439    4.90999985    2.67000008
   17.48416710  198.66900635    4.90999985    2.67000008
   17.48722267  193.57299805    4.90999985    2.67000008
   17.49055672  213.67199707    4.90999985    2.67000008
   17.49361229  214.32299805    4.90999985    2.67000008
   17.49694443  190.57299805    4.90999985    2.67000008
   17.50027847  204.76600647    4.90999985    2.67000008
   17.50333405  208.60800171    4.90999985    2.67000008
   17.50666618  193.18699646    4.90999985    2.67000008
   17.51277733  193.18699646    4.90999985    2.67000008
   17.51666641  218.76300049    4.90999985    2.67000008
   17.52000046  205.36900330    4.90999985    2.67000008
   17.52333260  206.61700439    4.90999985    2.67000008
   17.52638817  192.28799438    4.90999985    2.67000008
   17.52972221  219.68400574    4.90999985    2.67000008
   17.53305435  211.90899658    4.90999985    2.67000008
   17.53610992  203.66799927    4.90999985    2.67000008
   17.53944397  190.44099426    4.90999985    2.67000008
   17.54249954  196.42300415    4.90999985    2.67000008
   17.54472160  205.95399475    4.90999985    2.67000008
   17.54638863  191.36300659    4.90999985    2.67000008
   17.54972076  174.07299805    4.90999985    2.67000008
   17.55555534  174.07299805    4.90999985    2.67000008
   17.55972099  163.05299377    4.90999985    2.67000008
   17.56277657  194.31500244    4.90999985    2.67000008
   17.56611061  211.34199524    4.90999985    2.67000008
   17.56944466  194.94400024    4.90999985    2.67000008
   17.57250023  195.13600159    4.90999985    2.67000008
   17.57583427  199.60099792    4.90999985    2.67000008
   17.57805634  215.76600647    4.90999985    2.67000008
   17.57944489  198.60899353    4.90999985    2.67000008
   17.58277893  209.95799255    4.90999985    2.67000008
   17.58583450  209.87300110    4.90999985    2.67000008
   17.58916664  203.43800354    4.90999985    2.67000008
   17.59250069  210.52900696    4.90999985    2.67000008
   17.59833336  210.52900696    4.90999985    2.67000008
   17.60250092  210.89799500    4.90999985    2.67000008
   17.60583305  199.48800659    4.90999985    2.67000008
   17.60888863  186.28599548    4.90999985    2.67000008
   17.61138916  218.57099915    4.90999985    2.67000008
   17.61250114  210.02600098    4.90999985    2.67000008
   17.61583328  209.96099854    4.90999985    2.67000008
   17.61888885  208.70399475    4.90999985    2.67000008
   17.62222290  203.07899475    4.90999985    2.67000008
   17.62555504  201.39199829    4.90999985    2.67000008
   17.62861061  206.02200317    4.90999985    2.67000008
   17.63194466  223.08000183    4.90999985    2.67000008
   17.63500023  207.41299438    4.90999985    2.67000008
   17.64111137  207.41299438    4.90999985    2.67000008
   17.64527702  198.16600037    4.90999985    2.67000008
   17.64861107  172.75500488    4.90999985    2.67000008
   17.65166664  198.73100281    4.90999985    2.67000008
   17.65499878  214.31100464    4.90999985    2.67000008
   17.65833282  206.63000488    4.90999985    2.67000008
   17.66138840  180.12500000    4.90999985    2.67000008
   17.66472244  194.82000732    4.90999985    2.67000008
   17.66777802  199.97200012    4.90999985    2.67000008
   17.67111015  208.90800476    4.90999985    2.67000008
   17.67444420  200.86900330    4.90999985    2.67000008
   17.67749977  179.92900085    4.90999985    2.67000008
   17.67805481  187.78300476    4.90999985    2.67000008
   17.68388748  187.78300476    4.90999985    2.67000008
   17.68805504  190.83500671    4.90999985    2.67000008
   17.69138718  197.67300415    4.90999985    2.67000008
   17.69472122  164.76499939    4.90999985    2.67000008
   17.69777679  210.82899475    4.90999985    2.67000008
   17.70111275  191.92300415    4.90999985    2.67000008
   17.70416832  184.13600159    4.90999985    2.67000008
   17.70750046  208.10800171    4.90999985    2.67000008
   17.71083450  214.90699768    4.90999985    2.67000008
   17.71166801  188.19500732    4.90999985    2.67000008
   17.71444511  180.24800110    4.90999985    2.67000008
   17.71777916  175.53300476    4.90999985    2.67000008
   17.72083473  180.35299683    4.90999985    2.67000008
   17.72694588  180.35299683    4.90999985    2.67000008
   17.73111153  166.48199463    4.90999985    2.67000008
   17.73416710  139.71499634    4.90999985    2.67000008
   17.73750114  187.77499390    4.90999985    2.67000008
   17.74083328  176.21099854    4.90999985    2.67000008
   17.74388885  185.88800049    4.90999985    2.67000008
   17.74472237  182.25100708    4.90999985    2.67000008
   17.74749947  172.96899414    4.90999985    2.67000008
   17.75083351  201.37500000    4.90999985    2.67000008
   17.75388908  160.95899963    4.90999985    2.67000008
   17.75722313  200.43400574    4.90999985    2.67000008
   17.76055527  189.92399597    4.90999985    2.67000008
   17.76361084  200.12399292    4.90999985    2.67000008
   17.76972198  200.12399292    4.90999985    2.67000008
   17.77388954  188.25999451    4.90999985    2.67000008
   17.77694511  190.05000305    4.90999985    2.67000008
   17.77805519  188.11199951    4.90999985    2.67000008
   17.78055573  168.03799438    4.90999985    2.67000008
   17.78388786  166.80099487    4.90999985    2.67000008
   17.78694344  181.15899658    4.90999985    2.67000008
   17.79027748  178.61099243    4.90999985    2.67000008
   17.79361153  193.91400146    4.90999985    2.67000008
   17.79666710  204.72099304    4.90999985    2.67000008
   17.79999924  174.01899719    4.90999985    2.67000008
   17.80305481  178.60499573    4.90999985    2.67000008
   17.80638885  188.82099915    4.90999985    2.67000008
   17.81250000  188.82099915    4.90999985    2.67000008
   17.81666756  174.79800415    4.90999985    2.67000008
   17.82000160  181.56199646    4.90999985    2.67000008
   17.82305717  196.43499756    4.90999985    2.67000008
   17.82638931  183.61799622    4.90999985    2.67000008
   17.82972336  194.02999878    4.90999985    2.67000008
   17.83277893  208.85099792    4.90999985    2.67000008
   17.83611107  173.22000122    4.90999985    2.67000008
   17.83944511  157.44999695    4.90999985    2.67000008
   17.84250069  171.60200500    4.90999985    2.67000008
   17.84472275  175.17799377    4.90999985    2.67000008
   17.84611130  155.64100647    4.90999985    2.67000008
   17.84944534  199.27200317    4.90999985    2.67000008
   17.85527802  199.27200317    4.90999985    2.67000008
   17.85944557  183.16000366    4.90999985    2.67000008
   17.86277771  129.86399841    4.90999985    2.67000008
   17.86611176  167.09199524    4.90999985    2.67000008
   17.86916733  158.75900269    4.90999985    2.67000008
   17.87249947  150.12199402    4.90999985    2.67000008
   17.87555504  148.24600220    4.90999985    2.67000008
   17.87805557  160.57600403    4.90999985    2.67000008
   17.87916756  138.44400024    4.90999985    2.67000008
   17.88249969  184.43699646    4.90999985    2.67000008
   17.88555527  157.58799744    4.90999985    2.67000008
   17.88888931  141.23199463    4.90999985    2.67000008
   17.89222145  149.06599426    4.90999985    2.67000008
   17.89833260  149.06599426    4.90999985    2.67000008
   17.90250015  136.35899353    4.90999985    2.67000008
   17.90555573  193.50100708    4.90999985    2.67000008
   17.90888786  162.57499695    4.90999985    2.67000008
   17.91166687  161.19999695    4.90999985    2.67000008
   17.91250038  166.51300049    4.90999985    2.67000008
   17.91583252  157.20199585    4.90999985    2.67000008
   17.91916656  163.15400696    4.90999985    2.67000008
   17.92222214  138.68800354    4.90999985    2.67000008
   17.92555428  176.76400757    4.90999985    2.67000008
   17.92860985  162.81900024    4.90999985    2.67000008
   17.93194389  141.71699524    4.90999985    2.67000008
   17.93527603  156.34800720    4.90999985    2.67000008
   17.94111061  156.34800720    4.90999985    2.67000008
   17.94527626  148.19700623    4.90999985    2.67000008
   17.94861031  146.17999268    4.90999985    2.67000008
   17.95166779  140.33700562    4.90999985    2.67000008
   17.95499992  136.23399353    4.90999985    2.67000008
   17.95805550  162.27299500    4.90999985    2.67000008
   17.96138954  146.54200745    4.90999985    2.67000008
   17.96472359  138.01699829    4.90999985    2.67000008
   17.96777916  151.89700317    4.90999985    2.67000008
   17.97111130  151.17799377    4.90999985    2.67000008
   17.97444534  152.74200439    4.90999985    2.67000008
   17.97750092  136.36999512    4.90999985    2.67000008
   17.97833443  151.94400024    4.90999985    2.67000008
   17.98388863  151.94400024    4.90999985    2.67000008
   17.98805618  158.26300049    4.90999985    2.67000008
   17.99138832  140.87899780    4.90999985    2.67000008
   17.99444389  159.23800659    4.90999985    2.67000008
   17.99777794  183.83599854    4.90999985    2.67000008
   18.00111198  142.10600281    4.90999985    2.67000008
   18.00416756  151.87300110    4.90999985    2.67000008
   18.00749969  132.81700134    4.90999985    2.67000008
   18.01083374  146.28500366    4.90999985    2.67000008
   18.01166725  154.43699646    4.90999985    2.67000008
   18.01444435  163.60200500    4.90999985    2.67000008
   18.01777840  144.15800476    4.90999985    2.67000008
   18.02083397  151.22300720    4.90999985    2.67000008
   18.02666664  151.22300720    4.90999985    2.67000008
   18.03083229  155.66400146    4.90999985    2.67000008
   18.03416634  138.77600098    4.90999985    2.67000008
   18.03750038  138.24099731    4.90999985    2.67000008
   18.04055595  147.69900513    4.90999985    2.67000008
   18.04388809  149.32400513    4.90999985    2.67000008
   18.04500008  150.79100037    4.90999985    2.67000008
   18.04749870  152.84199524    4.90999985    2.67000008
   18.05083275  141.21800232    4.90999985    2.67000008
   18.05388832  151.88999939    4.90999985    2.67000008
   18.05722237  152.08399963    4.90999985    2.67000008
   18.06055450  149.35800171    4.90999985    2.67000008
   18.06361008  155.31199646    4.90999985    2.67000008
   18.06972313  155.31199646    4.90999985    2.67000008
   18.07389069  144.79499817    4.90999985    2.67000008
   18.07694626  150.69200134    4.90999985    2.67000008
   18.07833481  141.37899780    4.90999985    2.67000008
   18.08055687  155.50599670    4.90999985    2.67000008
   18.08388901  142.27999878    4.90999985    2.67000008
   18.08722305  141.74499512    4.90999985    2.67000008
   18.09027863  124.23300171    4.90999985    2.67000008
   18.09361267  142.43600464    4.90999985    2.67000008
   18.09694481  138.87699890    4.90999985    2.67000008
   18.10000038  148.44299316    4.90999985    2.67000008
   18.10333443  142.21800232    4.90999985    2.67000008
   18.10639000  144.35699463    4.90999985    2.67000008
   18.11250114  144.35699463    4.90999985    2.67000008
   18.11666679  140.96400452    4.90999985    2.67000008
   18.11972237  146.27699280    4.90999985    2.67000008
   18.12305641  132.08200073    4.90999985    2.67000008
   18.12638855  143.41499329    4.90999985    2.67000008
   18.12944412  141.34700012    4.90999985    2.67000008
   18.13277817  145.54100037    4.90999985    2.67000008
   18.13611031  141.87300110    4.90999985    2.67000008
   18.13916588  143.99699402    4.90999985    2.67000008
   18.14249992  144.69999695    4.90999985    2.67000008
   18.14500046  137.37399292    4.90999985    2.67000008
   18.14611053  141.07299805    4.90999985    2.67000008
   18.14944458  139.83500671    4.90999985    2.67000008
   18.15527725  139.83500671    4.90999985    2.67000008
   18.15944481  143.24400330    4.90999985    2.67000008
   18.16277695  134.70700073    4.90999985    2.67000008
   18.16583252  134.61599731    4.90999985    2.67000008
   18.16916656  143.01199341    4.90999985    2.67000008
   18.17249870  140.89100647    4.90999985    2.67000008
   18.17555428  128.36900330    4.90999985    2.67000008
   18.17833328  137.58000183    4.90999985    2.67000008
   18.17916679  137.63999939    4.90999985    2.67000008
   18.18249893  132.37800598    4.90999985    2.67000008
   18.18583298  139.96499634    4.90999985    2.67000008
   18.18916512  131.54699707    4.90999985    2.67000008
   18.19222069  135.11599731    4.90999985    2.67000008
   18.19805527  135.11599731    4.90999985    2.67000008
   18.20222282  127.68499756    4.90999985    2.67000008
   18.20555687  134.87899780    4.90999985    2.67000008
   18.20888901  134.87500000    4.90999985    2.67000008
   18.21166801  144.30900574    4.90999985    2.67000008
   18.21222305  130.03399658    4.90999985    2.67000008
   18.21555710  127.80200195    4.90999985    2.67000008
   18.21888924  151.78399658    4.90999985    2.67000008
   18.22194481  148.17300415    4.90999985    2.67000008
   18.22527885  134.77900696    4.90999985    2.67000008
   18.22833443  168.53500366    4.90999985    2.67000008
   18.23166656  178.89999390    4.90999985    2.67000008
   18.23500061  168.45599365    4.90999985    2.67000008
   18.24111176  168.45599365    4.90999985    2.67000008
   18.24527740  161.03599548    4.90999985    2.67000008
   18.24833298  143.53300476    4.90999985    2.67000008
   18.25166702  135.40199280    4.90999985    2.67000008
   18.25472260  165.88200378    4.90999985    2.67000008
   18.25805473  234.88900757    4.90999985    2.67000008
   18.26138878  209.15299988    4.90999985    2.67000008
   18.26444435  190.92900085    4.90999985    2.67000008
   18.26777840  147.46000671    4.90999985    2.67000008
   18.27111053  160.80000305    4.90999985    2.67000008
   18.27416611   -1.00000000    4.90999985    2.67000008
   18.27750015  226.43699646    4.90999985    2.67000008
   18.27833366  199.96600342    4.90999985    2.67000008
   18.28388786  199.96600342    4.90999985    2.67000008
   18.28805542  132.28700256    4.90999985    2.67000008
   18.29111099  197.59800720    4.90999985    2.67000008
   18.29444313  228.15899658    4.90999985    2.67000008
   18.29777718  224.67500305    4.90999985    2.67000008
   18.30083275   63.69079971    4.90999985    2.67000008
   18.30416679  225.67700195    4.90999985    2.67000008
   18.30749893  170.91700745    4.90999985    2.67000008
   18.31055450  155.30200195    4.90999985    2.67000008
   18.31166649  163.84100342    4.90999985    2.67000008
   18.31416512  167.76199341    4.90999985    2.67000008
   18.31750107  242.82000732    4.90999985    2.67000008
   18.32083511  182.66000366    4.90999985    2.67000008
   18.32666779  182.66000366    4.90999985    2.67000008
   18.33083344  137.50500488    4.90999985    2.67000008
   18.33416748  132.81599426    4.90999985    2.67000008
   18.33722305  175.82499695    4.90999985    2.67000008
   18.34055710  250.36500549    4.90999985    2.67000008
   18.34388924  140.74299622    4.90999985    2.67000008
   18.34500122  206.26100159    4.90999985    2.67000008
   18.34722328  186.15899658    4.90999985    2.67000008
   18.35055542  169.78599548    4.90999985    2.67000008
   18.35388947  178.68099976    4.90999985    2.67000008
   18.35694504  144.61799622    4.90999985    2.67000008
   18.36027908  140.11500549    4.90999985    2.67000008
   18.36361122  135.89300537    4.90999985    2.67000008
   18.36944389  135.89300537    4.90999985    2.67000008
   18.37361145  154.97000122    4.90999985    2.67000008
   18.37694550  154.52499390    4.90999985    2.67000008
   18.37833405  143.80000305    4.90999985    2.67000008
   18.38055611  135.38000488    4.90999985    2.67000008
   18.38388824  147.63200378    4.90999985    2.67000008
   18.38722229  140.05200195    4.90999985    2.67000008
   18.39027786  142.05599976    4.90999985    2.67000008
   18.39361191  139.63299561    4.90999985    2.67000008
   18.39694405  145.02999878    4.90999985    2.67000008
   18.39999962  139.82099915    4.90999985    2.67000008
   18.40333366  142.21499634    4.90999985    2.67000008
   18.40638924  127.23600006    4.90999985    2.67000008
   18.41250038  127.23600006    4.90999985    2.67000008
   18.41666603  151.82099915    4.90999985    2.67000008
   18.41972160  142.50999451    4.90999985    2.67000008
   18.42305565  143.73899841    4.90999985    2.67000008
   18.42611122  130.19000244    4.90999985    2.67000008
   18.42944336  138.58299255    4.90999985    2.67000008
   18.43277740  180.58299255    4.90999985    2.67000008
   18.43583298  178.91099548    4.90999985    2.67000008
   18.43916512  138.85299683    4.90999985    2.67000008
   18.44249916  157.44500732    4.90999985    2.67000008
   18.44499969  168.07099915    4.90999985    2.67000008
   18.46555710  168.07099915    4.90999985    2.67000008
   18.46972275  160.02400208    4.90999985    2.67000008
   18.47305679  136.20300293    4.90999985    2.67000008
   18.47611237  137.70300293    4.90999985    2.67000008
   18.47833443  134.45700073    4.90999985    2.67000008
   18.47972298  142.78399658    4.90999985    2.67000008
   18.48305511  141.95700073    4.90999985    2.67000008
   18.48638916  151.92100525    4.90999985    2.67000008
   18.48944473  135.01600647    4.90999985    2.67000008
   18.49277878  142.68499756    4.90999985    2.67000008
   18.49611092  130.51199341    4.90999985    2.67000008
   18.49916649  129.91700745    4.90999985    2.67000008
   18.50250053  139.36599731    4.90999985    2.67000008
   18.50833321  139.36599731    4.90999985    2.67000008
   18.51250076  129.52600098    4.90999985    2.67000008
   18.51555634  134.42700195    4.90999985    2.67000008
   18.51888847  144.99699402    4.90999985    2.67000008
   18.52222252  136.82800293    4.90999985    2.67000008
   18.52527809  134.86199951    4.90999985    2.67000008
   18.52861023  167.91000366    4.90999985    2.67000008
   18.53194427  138.86700439    4.90999985    2.67000008
   18.53499985  140.69400024    4.90999985    2.67000008
   18.53833199  128.93099976    4.90999985    2.67000008
   18.54138756  133.00599670    4.90999985    2.67000008
   18.54472160  137.37300110    4.90999985    2.67000008
   18.54527664  134.47200012    4.90999985    2.67000008
   18.55111122  134.47200012    4.90999985    2.67000008
   18.55527687  140.56599426    4.90999985    2.67000008
   18.55861092  135.41900635    4.90999985    2.67000008
   18.56166649  133.84500122    4.90999985    2.67000008
   18.56499863  147.54100037    4.90999985    2.67000008
   18.56833458  148.05599976    4.90999985    2.67000008
   18.57139015  140.22599792    4.90999985    2.67000008
   18.57472229  136.70799255    4.90999985    2.67000008
   18.57805634  146.92700195    4.90999985    2.67000008
   18.57861137  145.52600098    4.90999985    2.67000008
   18.58166695  158.02799988    4.90999985    2.67000008
   18.58472252  134.27400208    4.90999985    2.67000008
   18.58805656  129.25000000    4.90999985    2.67000008
   18.59388924  129.25000000    4.90999985    2.67000008
   18.59805679  129.98699951    4.90999985    2.67000008
   18.60138893  128.91799927    4.90999985    2.67000008
   18.60472298  137.05099487    4.90999985    2.67000008
   18.60777855  179.27000427    4.90999985    2.67000008
   18.61111069  160.00700378    4.90999985    2.67000008
   18.61194420  149.57499695    4.90999985    2.67000008
   18.61472321  151.30900574    4.90999985    2.67000008
   18.61777878  140.58799744    4.90999985    2.67000008
   18.62111092  135.47300720    4.90999985    2.67000008
   18.62444496  135.44700623    4.90999985    2.67000008
   18.62750053  132.71099854    4.90999985    2.67000008
   18.63083267  137.61199951    4.90999985    2.67000008
   18.63694382  137.61199951    4.90999985    2.67000008
   18.64111137  137.14500427    4.90999985    2.67000008
   18.64416695  147.63200378    4.90999985    2.67000008
   18.64527702  136.00500488    4.90999985    2.67000008
   18.64805603  138.57600403    4.90999985    2.67000008
   18.65111160  138.97900391    4.90999985    2.67000008
   18.65444374  188.94900513    4.90999985    2.67000008
   18.65777779  251.95500183    4.90999985    2.67000008
   18.66083336  139.33000183    4.90999985    2.67000008
   18.66416550  138.63400269    4.90999985    2.67000008
   18.66722107  137.45599365    4.90999985    2.67000008
   18.67055511  130.75100708    4.90999985    2.67000008
   18.67388916  136.02400208    4.90999985    2.67000008
   18.67972183  136.02400208    4.90999985    2.67000008
   18.68388748   -1.00000000    4.90999985    2.67000008
   18.68694305  263.40301514    4.90999985    2.67000008
   18.69027710  150.17599487    4.90999985    2.67000008
   18.69361115  234.32699585    4.90999985    2.67000008
   18.69666672  132.43499756    4.90999985    2.67000008
   18.70000076  140.05599976    4.90999985    2.67000008
   18.70333481  141.35200500    4.90999985    2.67000008
   18.70639038  159.47999573    4.90999985    2.67000008
   18.70972252  132.38499451    4.90999985    2.67000008
   18.71194458  137.87100220    4.90999985    2.67000008
   18.71333504  135.17199707    4.90999985    2.67000008
   18.71638870  131.11799622    4.90999985    2.67000008
   18.72249985  131.11799622    4.90999985    2.67000008
   18.72666740  155.41499329    4.90999985    2.67000008
   18.73000145  215.38400269    4.90999985    2.67000008
   18.73305511   -1.00000000    4.90999985    2.67000008
   18.73638916  188.07499695    4.90999985    2.67000008
   18.73972321   -1.00000000    4.90999985    2.67000008
   18.74277878   -1.00000000    4.90999985    2.67000008
   18.74638939   -1.00000000    4.90999985    2.67000008
   18.74972153  179.66400146    4.90999985    2.67000008
   18.75305557   -1.00000000    4.90999985    2.67000008
   18.75611115   -1.00000000    4.90999985    2.67000008
   18.75944519  168.16700745    4.90999985    2.67000008
   18.76944351   -1.00000000    4.90999985    2.67000008
   18.77249908   -1.00000000    4.90999985    2.67000008
   18.77583313   -1.00000000    4.90999985    2.67000008
   18.77861023  233.56500244    4.90999985    2.67000008
   18.77972221  223.90100098    4.90999985    2.67000008
   18.78277779  225.11199951    4.90999985    2.67000008
   18.78610992   -1.00000000    4.90999985    2.67000008
   18.78944397  164.21699524    4.90999985    2.67000008
   18.79249954  160.83799744    4.90999985    2.67000008
   18.79583359  153.17399597    4.90999985    2.67000008
   18.79888916  180.55599976    4.90999985    2.67000008
   18.80222130  132.57000732    4.90999985    2.67000008
   18.80833244  132.57000732    4.90999985    2.67000008
   18.81250000  146.80700684    4.90999985    2.67000008
   18.81555557  140.51499939    4.90999985    2.67000008
   18.81888962  152.71499634    4.90999985    2.67000008
   18.82194519  178.66200256    4.90999985    2.67000008
   18.82527924  168.57299805    4.90999985    2.67000008
   18.82861137  162.19000244    4.90999985    2.67000008
   18.83166695  173.04200745    4.90999985    2.67000008
   18.83500099  147.12100220    4.90999985    2.67000008
   18.83833313  152.07000732    4.90999985    2.67000008
   18.84138870  158.47599792    4.90999985    2.67000008
   18.84472275  159.76600647    4.90999985    2.67000008
   18.84527779  162.11500549    4.90999985    2.67000008
   18.85111237  162.11500549    4.90999985    2.67000008
   18.85527802  187.58000183    4.90999985    2.67000008
   18.85833359  220.15699768    4.90999985    2.67000008
   18.86166763   98.77079773    4.90999985    2.67000008
   18.86499977   -1.00000000    4.90999985    2.67000008
   18.86805534   -1.00000000    4.90999985    2.67000008
   18.87138939   -1.00000000    4.90999985    2.67000008
   18.87472153   -1.00000000    4.90999985    2.67000008
   18.87777710   -1.00000000    4.90999985    2.67000008
   18.88138962   -1.00000000    4.90999985    2.67000008
   18.88472176   -1.00000000    4.90999985    2.67000008
   18.88805580   -1.00000000    4.90999985    2.67000008
   18.89805603   -1.00000000    4.90999985    2.67000008
   18.90111160   -1.00000000    4.90999985    2.67000008
   18.90444374   -1.00000000    4.90999985    2.67000008
   18.90777779  118.69400024    4.90999985    2.67000008
   18.91083336   -1.00000000    4.90999985    2.67000008
   18.91416550   -1.00000000    4.90999985    2.67000008
   18.91749954   72.98789978    4.90999985    2.67000008
   18.92083359   -1.00000000    4.90999985    2.67000008
   18.92388916   -1.00000000    4.90999985    2.67000008
   18.92722130   84.55039978    4.90999985    2.67000008
   18.93027687   -1.00000000    4.90999985    2.67000008
   18.93666649   -1.00000000    4.90999985    2.67000008
   18.94083214  200.06500244    4.90999985    2.67000008
   18.94416618  236.93200684    4.90999985    2.67000008
   18.94527626  204.02099609    4.90999985    2.67000008
   18.94777679  251.73399353    4.90999985    2.67000008
   18.95111275  260.52600098    4.90999985    2.67000008
   18.95416832  174.42599487    4.90999985    2.67000008
   18.95750046  160.27999878    4.90999985    2.67000008
   18.96083450  170.35600281    4.90999985    2.67000008
   18.96389008  181.94099426    4.90999985    2.67000008
   18.96722221  156.85000610    4.90999985    2.67000008
   18.97027779  177.57600403    4.90999985    2.67000008
   18.97361183  310.57199097    4.90999985    2.67000008
   18.97972298  310.57199097    4.90999985    2.67000008
   18.98388863  169.25199890    4.90999985    2.67000008
   18.98694420  192.85800171    4.90999985    2.67000008
   18.99027824  177.55099487    4.90999985    2.67000008
   18.99333382  210.98800659    4.90999985    2.67000008
   18.99666786  216.28300476    4.90999985    2.67000008
   19.00000000  330.94299316    4.90999985    2.67000008
   19.00305557  311.52200317    4.90999985    2.67000008
   19.00638962  261.84799194    4.90999985    2.67000008
   19.00972176  280.58499146    4.90999985    2.67000008
   19.01194382  231.36399841    4.90999985    2.67000008
   19.01333427  231.10600281    4.90999985    2.67000008
   19.01638794  284.39599609    4.90999985    2.67000008
   19.02249908  284.39599609    4.90999985    2.67000008
   19.02666664  181.31100464    4.90999985    2.67000008
   19.02972221  190.95899963    4.90999985    2.67000008
   19.03305435  187.13800049    4.90999985    2.67000008
   19.03638840  157.40699768    4.90999985    2.67000008
   19.03944397  174.61199951    4.90999985    2.67000008
   19.04277802  175.28300476    4.90999985    2.67000008
   19.04527664  296.95999146    4.90999985    2.67000008
   19.04638863  287.78500366    4.90999985    2.67000008
   19.04944420  293.81500244    4.90999985    2.67000008
   19.05277634  201.12399292    4.90999985    2.67000008
   19.05611038  165.71499634    4.90999985    2.67000008
   19.05916595  245.01300049    4.90999985    2.67000008
   19.06527710  245.01300049    4.90999985    2.67000008
   19.06944466  172.49699402    4.90999985    2.67000008
   19.07277870  183.96000671    4.90999985    2.67000008
   19.07583427  215.47000122    4.90999985    2.67000008
   19.07861137  197.02499390    4.90999985    2.67000008
   19.07944489  231.31900024    4.90999985    2.67000008
   19.08250046  237.55999756    4.90999985    2.67000008
   19.08583450  344.18798828    4.90999985    2.67000008
   19.08916664  183.92100525    4.90999985    2.67000008
   19.09222221  215.54699707    4.90999985    2.67000008
   19.09555626   61.03430176    4.90999985    2.67000008
   19.09889030  131.18099976    4.90999985    2.67000008
   19.10194397  176.73300171    4.90999985    2.67000008
   19.10805511  176.73300171    4.90999985    2.67000008
   19.11222267  204.81799316    4.90999985    2.67000008
   19.11555672   -1.00000000    4.90999985    2.67000008
   19.11888885  163.97200012    4.90999985    2.67000008
   19.12194443   78.83689880    4.90999985    2.67000008
   19.12527847  246.69999695    4.90999985    2.67000008
   19.12861061  147.11199951    4.90999985    2.67000008
   19.13166618   -1.00000000    4.90999985    2.67000008
   19.13500023  160.52699280    4.90999985    2.67000008
   19.13805580   23.57019997    4.90999985    2.67000008
   19.14138794  234.27400208    4.90999985    2.67000008
   19.14472198   -1.00000000   -1.00000000   -1.00000000
   19.14527702   68.04810333    4.90999985    2.67000008
   19.15111160   68.04810333    4.90999985    2.67000008
   19.15499878   23.57019997    4.90999985    2.67000008
   19.15833282   -1.00000000    4.90999985    2.67000008
   19.16166687   -1.00000000    4.90999985    2.67000008
   19.16472244  122.65899658    4.90999985    2.67000008
   19.16805458   -1.00000000    4.90999985    2.67000008
   19.17111015   -1.00000000    4.90999985    2.67000008
   19.17444420   -1.00000000    4.90999985    2.67000008
   19.17777634  126.31099701    4.90999985    2.67000008
   19.17860985  141.41700745    4.90999985    2.67000008
   19.18138885   38.78150177    4.90999985    2.67000008
   19.18444443   -1.00000000    4.90999985    2.67000008
   19.18777657  126.48000336    4.90999985    2.67000008
   19.19388771  126.48000336    4.90999985    2.67000008
   19.19805527   23.57019997    4.90999985    2.67000008
   19.20111275   -1.00000000    4.90999985    2.67000008
   19.20444489  110.54900360    4.90999985    2.67000008
   19.20777893  270.86599731    4.90999985    2.67000008
   19.21083450  147.79299927    4.90999985    2.67000008
   19.21194458  134.30700684    4.90999985    2.67000008
   19.21444511  177.05299377    4.90999985    2.67000008
   19.21750069  177.00199890    4.90999985    2.67000008
   19.22083473  173.94099426    4.90999985    2.67000008
   19.22416687  161.73399353    4.90999985    2.67000008
   19.22722244  254.59500122    4.90999985    2.67000008
   19.23055649  113.43499756    4.90999985    2.67000008
   19.23666763  113.43499756    4.90999985    2.67000008
   19.24083328   -1.00000000    4.90999985    2.67000008
   19.24416733  277.43798828    4.90999985    2.67000008
   19.24527740  201.37199402    4.90999985    2.67000008
   19.24777794  190.40299988    4.90999985    2.67000008
   19.25083351  175.91799927    4.90999985    2.67000008
   19.25416756  149.33299255    4.90999985    2.67000008
   19.25749969  135.85899353    4.90999985    2.67000008
   19.26055527  147.75399780    4.90999985    2.67000008
   19.26388931  139.49299622    4.90999985    2.67000008
   19.26722145  145.19900513    4.90999985    2.67000008
   19.27027702  146.20500183    4.90999985    2.67000008
   19.27361107  158.84700012    4.90999985    2.67000008
   19.27944374  158.84700012    4.90999985    2.67000008
   19.28361130  145.28599548    4.90999985    2.67000008
   19.28694344  165.77400208    4.90999985    2.67000008
   19.28999901  242.13499451    4.90999985    2.67000008
   19.29333305   -1.00000000    4.90999985    2.67000008
   19.29666710  180.00900269    4.90999985    2.67000008
   19.29972076  138.13400269    4.90999985    2.67000008
   19.30305481  130.20599365    4.90999985    2.67000008
   19.30611038   -1.00000000    4.90999985    2.67000008
   19.30944443  161.70399475    4.90999985    2.67000008
   19.31194305  160.88200378    4.90999985    2.67000008
   19.31305504  146.25300598    4.90999985    2.67000008
   19.31638718  162.65699768    4.90999985    2.67000008
   19.32250023  162.65699768    4.90999985    2.67000008
   19.32638931  140.81500244    4.90999985    2.67000008
   19.32972336  206.74699402    4.90999985    2.67000008
   19.33305550  159.30200195    4.90999985    2.67000008
   19.33611107  167.54600525    4.90999985    2.67000008
   19.33944511  143.36599731    4.90999985    2.67000008
   19.34277916  139.46800232    4.90999985    2.67000008
   19.34527779  186.93800354    4.90999985    2.67000008
   19.34638977  178.47300720    4.90999985    2.67000008
   19.34972191  164.99600220    4.90999985    2.67000008
   19.35277748  187.42100525    4.90999985    2.67000008
   19.35611153  153.61599731    4.90999985    2.67000008
   19.35916710  172.05099487    4.90999985    2.67000008
   19.36527824  172.05099487    4.90999985    2.67000008
   19.36944389   -1.00000000    4.90999985    2.67000008
   19.37249947   -1.00000000    4.90999985    2.67000008
   19.37583351   -1.00000000    4.90999985    2.67000008
   19.37944412   -1.00000000    4.90999985    2.67000008
   19.38249969   -1.00000000    4.90999985    2.67000008
   19.38583374   -1.00000000    4.90999985    2.67000008
   19.38888931   -1.00000000    4.90999985    2.67000008
   19.39222145   -1.00000000    4.90999985    2.67000008
   19.39555550   -1.00000000    4.90999985    2.67000008
   19.39861107   -1.00000000    4.90999985    2.67000008
   19.40194321   -1.00000000    4.90999985    2.67000008
   19.41194344   -1.00000000    4.90999985    2.67000008
   19.41527748   -1.00000000    4.90999985    2.67000008
   19.41860962   -1.00000000    4.90999985    2.67000008
   19.42166519   -1.00000000    4.90999985    2.67000008
   19.42499924   -1.00000000    4.90999985    2.67000008
   19.42833328   -1.00000000    4.90999985    2.67000008
   19.43138885   -1.00000000    4.90999985    2.67000008
   19.43472099   -1.00000000    4.90999985    2.67000008
   19.43805504   -1.00000000    4.90999985    2.67000008
   19.44111061   -1.00000000    4.90999985    2.67000008
   19.44444275   -1.00000000    4.90999985    2.67000008
   19.45499992   -1.00000000    4.90999985    2.67000008
   19.45805550   -1.00000000    4.90999985    2.67000008
   19.46138954   -1.00000000    4.90999985    2.67000008
   19.48111153   -1.00000000    4.90999985    2.67000008
   19.48444557   -1.00000000    4.90999985    2.67000008
   19.48777771   -1.00000000    4.90999985    2.67000008
   19.49777794   -1.00000000    4.90999985    2.67000008
   19.50111198   -1.00000000    4.90999985    2.67000008
   19.50444412   -1.00000000    4.90999985    2.67000008
   19.50749969   -1.00000000    4.90999985    2.67000008
   19.51083374   -1.00000000    4.90999985    2.67000008
   19.51444435   -1.00000000    4.90999985    2.67000008
   19.51777840   -1.00000000    4.90999985    2.67000008
   19.52083397   -1.00000000    4.90999985    2.67000008
   19.52416611   -1.00000000    4.90999985    2.67000008
   19.52750015   -1.00000000    4.90999985    2.67000008
   19.53055573   -1.00000000    4.90999985    2.67000008
   19.54083252   -1.00000000    4.90999985    2.67000008
   19.54388809   -1.00000000    4.90999985    2.67000008
   19.54749870   -1.00000000    4.90999985    2.67000008
   19.55083275   -1.00000000    4.90999985    2.67000008
   19.55388832   -1.00000000    4.90999985    2.67000008
   19.55722237   -1.00000000    4.90999985    2.67000008
   19.56055450   -1.00000000    4.90999985    2.67000008
   19.56361008   -1.00000000    4.90999985    2.67000008
   19.56694603   -1.00000000    4.90999985    2.67000008
   19.57027817   -1.00000000    4.90999985    2.67000008
   19.57333374   -1.00000000    4.90999985    2.67000008
   19.58361244   -1.00000000    4.90999985    2.67000008
   19.58694458   -1.00000000    4.90999985    2.67000008
   19.59000015   -1.00000000    4.90999985    2.67000008
   19.59333420   -1.00000000    4.90999985    2.67000008
   19.59666824   -1.00000000    4.90999985    2.67000008
   19.59972191   -1.00000000    4.90999985    2.67000008
   19.60305595   -1.00000000    4.90999985    2.67000008
   19.60611153   -1.00000000    4.90999985    2.67000008
   19.60944557   -1.00000000    4.90999985    2.67000008
   19.61305618   -1.00000000    4.90999985    2.67000008
   19.61638832   -1.00000000    4.90999985    2.67000008
   19.62638855   -1.00000000    4.90999985    2.67000008
   19.62972260   -1.00000000    4.90999985    2.67000008
   19.63277817   -1.00000000    4.90999985    2.67000008
   19.63611031   -1.00000000    4.90999985    2.67000008
   19.63944435   -1.00000000    4.90999985    2.67000008
   19.64249992   -1.00000000    4.90999985    2.67000008
   19.64611053   -1.00000000    4.90999985    2.67000008
   19.64944458   -1.00000000    4.90999985    2.67000008
   19.65277672   -1.00000000    4.90999985    2.67000008
   19.65583229   -1.00000000    4.90999985    2.67000008
   19.65916634   -1.00000000    4.90999985    2.67000008
   19.66916656   -1.00000000    4.90999985    2.67000008
   19.67249870   -1.00000000    4.90999985    2.67000008
   19.67583275   -1.00000000    4.90999985    2.67000008
   19.67916679   -1.00000000    4.90999985    2.67000008
   19.68249893   -1.00000000    4.90999985    2.67000008
   19.68583298   -1.00000000    4.90999985    2.67000008
   19.68888855   -1.00000000    4.90999985    2.67000008
   19.69222069   -1.00000000    4.90999985    2.67000008
   19.69527626   -1.00000000    4.90999985    2.67000008
   19.69861031   -1.00000000    4.90999985    2.67000008
   19.70194435   -1.00000000    4.90999985    2.67000008
   19.71250153   -1.00000000    4.90999985    2.67000008
   19.71583366   -1.00000000    4.90999985    2.67000008
   19.71916771   -1.00000000    4.90999985    2.67000008
   19.72222328   -1.00000000    4.90999985    2.67000008
   19.72555542   -1.00000000    4.90999985    2.67000008
   19.72861099   -1.00000000    4.90999985    2.67000008
   19.73194504   -1.00000000    4.90999985    2.67000008
   19.73527718   -1.00000000    4.90999985    2.67000008
   19.73833275   -1.00000000    4.90999985    2.67000008
   19.74166679  147.32499695    4.90999985    2.67000008
   19.74500084  159.41999817    4.90999985    2.67000008
   19.74555588  175.06500244    4.90999985    2.67000008
   19.75083351  175.06500244    4.90999985    2.67000008
   19.75499916  197.30099487    4.90999985    2.67000008
   19.75833321  221.00399780    4.90999985    2.67000008
   19.76166725   -1.00000000    4.90999985    2.67000008
   19.76472282   -1.00000000    4.90999985    2.67000008
   19.76805496   -1.00000000    4.90999985    2.67000008
   19.77111053   -1.00000000    4.90999985    2.67000008
   19.77444458  175.42399597    4.90999985    2.67000008
   19.77777672  159.22300720    4.90999985    2.67000008
   19.77888870  158.88699341    4.90999985    2.67000008
   19.78138924  157.51100159    4.90999985    2.67000008
   19.78444481  158.07299805    4.90999985    2.67000008
   19.78777695  153.76300049    4.90999985    2.67000008
   19.79388809  153.76300049    4.90999985    2.67000008
   19.79805565  140.76100159    4.90999985    2.67000008
   19.80111122  146.35499573    4.90999985    2.67000008
   19.80444336  149.90499878    4.90999985    2.67000008
   19.80749893  149.12399292    4.90999985    2.67000008
   19.81083298  143.75000000    4.90999985    2.67000008
   19.81222153  150.25700378    4.90999985    2.67000008
   19.81444359  151.19400024    4.90999985    2.67000008
   19.81750107  146.89300537    4.90999985    2.67000008
   19.82083511  148.89399719    4.90999985    2.67000008
   19.82416725  147.16600037    4.90999985    2.67000008
   19.82722282  140.00700378    4.90999985    2.67000008
   19.83055687  139.81599426    4.90999985    2.67000008
   19.83666801  139.81599426    4.90999985    2.67000008
   19.84083366  138.20100403    4.90999985    2.67000008
   19.84388924  145.52900696    4.90999985    2.67000008
   19.84555626  142.33200073    4.90999985    2.67000008
   19.84777832  153.32000732    4.90999985    2.67000008
   19.85083389  141.72200012    4.90999985    2.67000008
   19.85416794  144.60099792    4.90999985    2.67000008
   19.85750008  152.24400330    4.90999985    2.67000008
   19.86055565  148.33700562    4.90999985    2.67000008
   19.86388969  152.81500244    4.90999985    2.67000008
   19.86694527  146.10899353    4.90999985    2.67000008
   19.87027740  144.93200684    4.90999985    2.67000008
   19.87361145  145.85899353    4.90999985    2.67000008
   19.87944412  145.85899353    4.90999985    2.67000008
   19.88361168  145.36900330    4.90999985    2.67000008
   19.88694382  130.88900757    4.90999985    2.67000008
   19.88999939  144.62899780    4.90999985    2.67000008
   19.89333344  141.92100525    4.90999985    2.67000008
   19.89666748  140.02400208    4.90999985    2.67000008
   19.89972115  148.17599487    4.90999985    2.67000008
   19.90305519  136.31199646    4.90999985    2.67000008
   19.90638924  136.91400146    4.90999985    2.67000008
   19.90944481  143.26899719    4.90999985    2.67000008
   19.91222191  138.97900391    4.90999985    2.67000008
   19.91333389  137.69099426    4.90999985    2.67000008
   19.91638756  143.30099487    4.90999985    2.67000008
   19.92222214  143.30099487    4.90999985    2.67000008
   19.92638779  140.58799744    4.90999985    2.67000008
   19.92972183  142.32299805    4.90999985    2.67000008
   19.93277740  141.44200134    4.90999985    2.67000008
   19.93610954  142.69900513    4.90999985    2.67000008
   19.93944359  145.49299622    4.90999985    2.67000008
   19.94249916  141.59800720    4.90999985    2.67000008
   19.94555473  150.16299438    4.90999985    2.67000008
   19.94638824  140.96000671    4.90999985    2.67000008
   19.94944382  143.92700195    4.90999985    2.67000008
   19.95277786  138.71299744    4.90999985    2.67000008
   19.95583344  174.22000122    4.90999985    2.67000008
   19.95916748  180.58299255    4.90999985    2.67000008
   19.96527863  180.58299255    4.90999985    2.67000008
   19.96944427  155.26100159    4.90999985    2.67000008
   19.97249985  147.21099854    4.90999985    2.67000008
   19.97583389  246.25199890    4.90999985    2.67000008
   19.97888947  126.73999786    4.90999985    2.67000008
   19.97944450   -1.00000000    4.90999985    2.67000008
   19.98250008   -1.00000000    4.90999985    2.67000008
   19.98583412   -1.00000000    4.90999985    2.67000008
   19.98888969   -1.00000000    4.90999985    2.67000008
   19.99222183   -1.00000000    4.90999985    2.67000008
   19.99555588   -1.00000000    4.90999985    2.67000008
   19.99861145  223.62800598    4.90999985    2.67000008
   20.00194359  221.52200317    4.90999985    2.67000008
   20.00805473  221.52200317    4.90999985    2.67000008
   20.01222229  104.50399780    4.90999985    2.67000008
   20.01583290   -1.00000000    4.90999985    2.67000008
   20.01916695   -1.00000000    4.90999985    2.67000008
   20.02222252   -1.00000000    4.90999985    2.67000008
   20.02555466   84.62359619    4.90999985    2.67000008
   20.02861023  165.87899780    4.90999985    2.67000008
   20.03194427  152.33799744    4.90999985    2.67000008
   20.03527641  153.17300415    4.90999985    2.67000008
   20.03833199   83.16750336    4.90999985    2.67000008
   20.04166603  156.20399475    4.90999985    2.67000008
   20.04500008  167.02699280    4.90999985    2.67000008
   20.04611015  163.95899963    4.90999985    2.67000008
   20.05083275  163.95899963    4.90999985    2.67000008
   20.05499840  131.09700012    4.90999985    2.67000008
   20.05833244  170.42300415    4.90999985    2.67000008
   20.06138802   -1.00000000    4.90999985    2.67000008
   20.06472206   -1.00000000    4.90999985    2.67000008
   20.06805611   -1.00000000    4.90999985    2.67000008
   20.07111168   -1.00000000    4.90999985    2.67000008
   20.07444572   -1.00000000    4.90999985    2.67000008
   20.07750130   -1.00000000    4.90999985    2.67000008
   20.08111191   -1.00000000    4.90999985    2.67000008
   20.08444595  217.83700562    4.90999985    2.67000008
   20.08750153  139.58299255    4.90999985    2.67000008
   20.09361267  139.58299255    4.90999985    2.67000008
   20.09777832  101.26300049    4.90999985    2.67000008
   20.10111237   -1.00000000    4.90999985    2.67000008
   20.10416794   -1.00000000    4.90999985    2.67000008
   20.10750008   -1.00000000    4.90999985    2.67000008
   20.11083412   -1.00000000    4.90999985    2.67000008
   20.11416626   -1.00000000    4.90999985    2.67000008
   20.11750031   -1.00000000    4.90999985    2.67000008
   20.12055588   -1.00000000    4.90999985    2.67000008
   20.12416649   -1.00000000    4.90999985    2.67000008
   20.12750053   -1.00000000    4.90999985    2.67000008
   20.13055611   -1.00000000    4.90999985    2.67000008
   20.13666725   -1.00000000    4.90999985    2.67000008
   20.14083290  120.66300201    4.90999985    2.67000008
   20.14388847  182.66000366    4.90999985    2.67000008
   20.14611053  109.87100220    4.90999985    2.67000008
   20.14749908   -1.00000000    4.90999985    2.67000008
   20.15083313   -1.00000000    4.90999985    2.67000008
   20.15416718   -1.00000000    4.90999985    2.67000008
   20.15722275   -1.00000000    4.90999985    2.67000008
   20.16055489   -1.00000000    4.90999985    2.67000008
   20.16361046   -1.00000000    4.90999985    2.67000008
   20.16694450   -1.00000000   -1.00000000   -1.00000000
   20.17027664  241.64799500    4.90999985    2.67000008
   20.17333221  196.61000061    4.90999985    2.67000008
   20.17944336  196.61000061    4.90999985    2.67000008
   20.18361092  223.29200745    4.90999985    2.67000008
   20.18666649  197.33200073    4.90999985    2.67000008
   20.18999863  217.50799561    4.90999985    2.67000008
   20.19333267  162.48899841    4.90999985    2.67000008
   20.19638824  164.48300171    4.90999985    2.67000008
   20.19972038  180.19200134    4.90999985    2.67000008
   20.20277786  167.31500244    4.90999985    2.67000008
   20.20611191  164.53399658    4.90999985    2.67000008
   20.20944595  157.94900513    4.90999985    2.67000008
   20.21250153  152.99299622    4.90999985    2.67000008
   20.21305656  162.20899963    4.90999985    2.67000008
   20.21638870  164.60299683    4.90999985    2.67000008
   20.22222328  164.60299683    4.90999985    2.67000008
   20.22638893  155.43699646    4.90999985    2.67000008
   20.22972298  152.01899719    4.90999985    2.67000008
   20.23277855  153.00500488    4.90999985    2.67000008
   20.23611069  156.03300476    4.90999985    2.67000008
   20.23916626  146.61099243    4.90999985    2.67000008
   20.24250031  141.41299438    4.90999985    2.67000008
   20.24583435  146.60699463    4.90999985    2.67000008
   20.24638939  155.51199341    4.90999985    2.67000008
   20.24944496  149.01400757    4.90999985    2.67000008
   20.25277710  160.13900757    4.90999985    2.67000008
   20.25583267  152.47200012    4.90999985    2.67000008
   20.25916672  150.88400269    4.90999985    2.67000008
   20.26499939  150.88400269    4.90999985    2.67000008
   20.26916695  160.70700073    4.90999985    2.67000008
   20.27249908  155.79400635    4.90999985    2.67000008
   20.27555466  156.56500244    4.90999985    2.67000008
   20.27888870  152.05400085    4.90999985    2.67000008
   20.27972221  156.88299561    4.90999985    2.67000008
   20.28249931  164.09100342    4.90999985    2.67000008
   20.28583336  166.42500305    4.90999985    2.67000008
   20.28888893  164.30499268    4.90999985    2.67000008
   20.29222107  157.29100037    4.90999985    2.67000008
   20.29527664  149.94500732    4.90999985    2.67000008
   20.29861069  164.02400208    4.90999985    2.67000008
   20.30194283  155.85899353    4.90999985    2.67000008
   20.30805397  155.85899353    4.90999985    2.67000008
   20.31194305  155.31100464    4.90999985    2.67000008
   20.31305504  150.53999329    4.90999985    2.67000008
   20.31583214  147.75900269    4.90999985    2.67000008
   20.31916809  149.37699890    4.90999985    2.67000008
   20.32222366  154.60800171    4.90999985    2.67000008
   20.32555580  149.22300720    4.90999985    2.67000008
   20.32861137  154.67399597    4.90999985    2.67000008
   20.33194542  149.19799805    4.90999985    2.67000008
   20.33527756  159.28599548    4.90999985    2.67000008
   20.33833313  152.34300232    4.90999985    2.67000008
   20.34166718  149.61000061    4.90999985    2.67000008
   20.34500122  155.49499512    4.90999985    2.67000008
   20.34638977  161.21200562    4.90999985    2.67000008
   20.35083389  161.21200562    4.90999985    2.67000008
   20.35499954  158.21499634    4.90999985    2.67000008
   20.35805511  159.42300415    4.90999985    2.67000008
   20.36138916  152.95799255    4.90999985    2.67000008
   20.36472321  156.78500366    4.90999985    2.67000008
   20.36777878  153.95599365    4.90999985    2.67000008
   20.37111092  154.89300537    4.90999985    2.67000008
   20.37416649  151.88200378    4.90999985    2.67000008
   20.37750053  158.28100586    4.90999985    2.67000008
   20.37972260  152.72099304    4.90999985    2.67000008
   20.38111115  145.14100647    4.90999985    2.67000008
   20.38444519  148.06100464    4.90999985    2.67000008
   20.38750076  160.94799805    4.90999985    2.67000008
   20.39361191  160.94799805    4.90999985    2.67000008
   20.39777756  146.42999268    4.90999985    2.67000008
   20.40111160  151.62399292    4.90999985    2.67000008
   20.40416718  150.71299744    4.90999985    2.67000008
   20.40749931  154.22300720    4.90999985    2.67000008
   20.41083336  147.89300537    4.90999985    2.67000008
   20.41305542  159.91299438    4.90999985    2.67000008
   20.41444397  153.56100464    4.90999985    2.67000008
   20.41777802  151.03700256    4.90999985    2.67000008
   20.42083359  147.93299866    4.90999985    2.67000008
   20.42416573  156.28500366    4.90999985    2.67000008
   20.42722130  155.48899841    4.90999985    2.67000008
   20.43055534  151.43699646    4.90999985    2.67000008
   20.43638802  151.43699646    4.90999985    2.67000008
   20.44055557  150.00000000    4.90999985    2.67000008
   20.44388771  156.25500488    4.90999985    2.67000008
   20.44638824  151.15499878    4.90999985    2.67000008
   20.44749832  151.56300354    4.90999985    2.67000008
   20.45083427  160.14399719    4.90999985    2.67000008
   20.45388985  157.69599915    4.90999985    2.67000008
   20.45722389  151.82000732    4.90999985    2.67000008
   20.46027946  143.42300415    4.90999985    2.67000008
   20.46361160  155.34500122    4.90999985    2.67000008
   20.46694565  147.19099426    4.90999985    2.67000008
   20.47000122  152.47300720    4.90999985    2.67000008
   20.47333336  144.62600708    4.90999985    2.67000008
   20.47944450  144.62600708    4.90999985    2.67000008
   20.49777794  151.12699890    4.90999985    2.67000008
   20.50083351  153.82099915    4.90999985    2.67000008
   20.50416756  147.44400024    4.90999985    2.67000008
   20.50749969  150.22099304    4.90999985    2.67000008
   20.51055527  152.85000610    4.90999985    2.67000008
   20.51388931  159.49800110    4.90999985    2.67000008
   20.51722145  155.87600708    4.90999985    2.67000008
   20.52249908  155.87600708    4.90999985    2.67000008
   20.52666664  150.83399963    4.90999985    2.67000008
   20.52972221  149.80400085    4.90999985    2.67000008
   20.53083229  158.39599609    4.90999985    2.67000008
   20.53333282  149.71699524    4.90999985    2.67000008
   20.53666687  151.56700134    4.90999985    2.67000008
   20.53999901  149.65100098    4.90999985    2.67000008
   20.54305458  154.64999390    4.90999985    2.67000008
   20.54638863  152.10499573    4.90999985    2.67000008
   20.54972076  150.82800293    4.90999985    2.67000008
   20.55277634  150.80799866    4.90999985    2.67000008
   20.55611038  151.13499451    4.90999985    2.67000008
   20.55916595  147.99899292    4.90999985    2.67000008
   20.56527710  147.99899292    4.90999985    2.67000008
   20.56944466  147.14599609    4.90999985    2.67000008
   20.57250023  153.04499817    4.90999985    2.67000008
   20.57583427  156.14399719    4.90999985    2.67000008
   20.57916832  151.22700500    4.90999985    2.67000008
   20.58222389  149.49200439    4.90999985    2.67000008
   20.58555603  162.27499390    4.90999985    2.67000008
   20.58889008  157.28300476    4.90999985    2.67000008
   20.59194565  154.99000549    4.90999985    2.67000008
   20.59527779  149.64300537    4.90999985    2.67000008
   20.59749985  156.41099548    4.90999985    2.67000008
   20.59889030  151.05700684    4.90999985    2.67000008
   20.60222244  147.05099487    4.90999985    2.67000008
   20.60805511  147.05099487    4.90999985    2.67000008
   20.61222267  151.92799377    4.90999985    2.67000008
   20.61555672  153.50799561    4.90999985    2.67000008
   20.61861038  148.53599548    4.90999985    2.67000008
   20.62194443  146.86999512    4.90999985    2.67000008
   20.62527847  156.85400391    4.90999985    2.67000008
   20.62833405  147.61099243    4.90999985    2.67000008
   20.63083267  148.42799377    4.90999985    2.67000008
   20.63194466  150.83200073    4.90999985    2.67000008
   20.63527679  152.14799500    4.90999985    2.67000008
   20.63861084  150.02299500    4.90999985    2.67000008
   20.64166641  146.31199646    4.90999985    2.67000008
   20.64500046  144.68499756    4.90999985    2.67000008
   20.65083313  144.68499756    4.90999985    2.67000008
   20.65499878  148.36999512    4.90999985    2.67000008
   20.65833282  150.05799866    4.90999985    2.67000008
   20.66166687  155.21600342    4.90999985    2.67000008
   20.66416550  151.37699890    4.90999985    2.67000008
   20.66527748  151.79400635    4.90999985    2.67000008
   20.66833305  156.25500488    4.90999985    2.67000008
   20.67166519  155.60800171    4.90999985    2.67000008
   20.67472076  149.32000732    4.90999985    2.67000008
   20.67805481  157.14300537    4.90999985    2.67000008
   20.68138885  149.67500305    4.90999985    2.67000008
   20.68444443  148.41900635    4.90999985    2.67000008
   20.68777657  152.23300171    4.90999985    2.67000008
   20.69388771  152.23300171    4.90999985    2.67000008
   20.69805527  149.08299255    4.90999985    2.67000008
   20.70111275  147.58500671    4.90999985    2.67000008
   20.70444489  160.53599548    4.90999985    2.67000008
   20.70750046  152.30099487    4.90999985    2.67000008
   20.71083450  150.94000244    4.90999985    2.67000008
   20.71416664  155.13099670    4.90999985    2.67000008
   20.71722221  149.28399658    4.90999985    2.67000008
   20.72055626  154.79499817    4.90999985    2.67000008
   20.72389030  151.63200378    4.90999985    2.67000008
   20.72694588  155.40499878    4.90999985    2.67000008
   20.73027802  154.63200378    4.90999985    2.67000008
   20.73083305  151.46899414    4.90999985    2.67000008
   20.73666763  151.46899414    4.90999985    2.67000008
   20.74083328  154.35800171    4.90999985    2.67000008
   20.74388885  152.10600281    4.90999985    2.67000008
   20.74722290  158.29100037    4.90999985    2.67000008
   20.75055504  159.24400330    4.90999985    2.67000008
   20.75361061  150.38099670    4.90999985    2.67000008
   20.75694466  157.27499390    4.90999985    2.67000008
   20.76027870  148.97900391    4.90999985    2.67000008
   20.76333427  162.03199768    4.90999985    2.67000008
   20.76416588  154.73800659    4.90999985    2.67000008
   20.76722145  150.02600098    4.90999985    2.67000008
   20.77027702  155.32099915    4.90999985    2.67000008
   20.77361107  156.55000305    4.90999985    2.67000008
   20.77944374  156.55000305    4.90999985    2.67000008
   20.78361130  156.57099915    4.90999985    2.67000008
   20.78694344  159.07499695    4.90999985    2.67000008
   20.78999901  152.71899414    4.90999985    2.67000008
   20.79333305  155.11500549    4.90999985    2.67000008
   20.79666710  160.40199280    4.90999985    2.67000008
   20.79749870  153.26600647    4.90999985    2.67000008
   20.80027771  164.94999695    4.90999985    2.67000008
   20.80333328  160.58999634    4.90999985    2.67000008
   20.80666542  147.31700134    4.90999985    2.67000008
   20.80972099  159.55999756    4.90999985    2.67000008
   20.81305504  150.82400513    4.90999985    2.67000008
   20.81638718  155.55700684    4.90999985    2.67000008
   20.82222366  155.55700684    4.90999985    2.67000008
   20.82638931  160.71699524    4.90999985    2.67000008
   20.82972336  160.24800110    4.90999985    2.67000008
   20.83083344  159.93899536    4.90999985    2.67000008
   20.83333397  154.56199646    4.90999985    2.67000008
   20.83638954  160.38299561    4.90999985    2.67000008
   20.83972359  152.99400330    4.90999985    2.67000008
   20.84277916  157.13099670    4.90999985    2.67000008
   20.84611130  157.67700195    4.90999985    2.67000008
   20.84944534  149.96499634    4.90999985    2.67000008
   20.85250092  151.76600647    4.90999985    2.67000008
   20.85583305  153.81100464    4.90999985    2.67000008
   20.85916710  155.29699707    4.90999985    2.67000008
   20.86527824  155.29699707    4.90999985    2.67000008
   20.86944389  155.57600403    4.90999985    2.67000008
   20.87249947  165.61000061    4.90999985    2.67000008
   20.87583351  156.93299866    4.90999985    2.67000008
   20.87916756  157.97399902    4.90999985    2.67000008
   20.88222313  153.45100403    4.90999985    2.67000008
   20.88555527  155.15199280    4.90999985    2.67000008
   20.88861084  154.96299744    4.90999985    2.67000008
   20.89194489  159.97799683    4.90999985    2.67000008
   20.89527702  151.22599792    4.90999985    2.67000008
   20.89749908  158.60600281    4.90999985    2.67000008
   20.89888954  161.74299622    4.90999985    2.67000008
   20.90194321  153.63800049    4.90999985    2.67000008
   20.90805435  153.63800049    4.90999985    2.67000008
   20.91222191  155.70500183    4.90999985    2.67000008
   20.91555595  151.12600708    4.90999985    2.67000008
   20.91860962  158.33500671    4.90999985    2.67000008
   20.92194366  166.61700439    4.90999985    2.67000008
   20.92499924  155.16799927    4.90999985    2.67000008
   20.92833328  155.98899841    4.90999985    2.67000008
   20.93083191  158.53199768    4.90999985    2.67000008
   20.93222237  154.11500549    4.90999985    2.67000008
   20.93527603  156.39199829    4.90999985    2.67000008
   20.93861008  163.91900635    4.90999985    2.67000008
   20.94166565  151.07899475    4.90999985    2.67000008
   20.94499969  153.48699951    4.90999985    2.67000008
   20.95083427  153.48699951    4.90999985    2.67000008
   20.95499992  153.42500305    4.90999985    2.67000008
   20.95833397  158.41900635    4.90999985    2.67000008
   20.96138954  155.84599304    4.90999985    2.67000008
   20.96416664  154.35899353    4.90999985    2.67000008
   20.96527863  158.02699280    4.90999985    2.67000008
   20.96833420  160.83999634    4.90999985    2.67000008
   20.97166634  157.05400085    4.90999985    2.67000008
   20.97472191  159.69000244    4.90999985    2.67000008
   20.97805595  155.07299805    4.90999985    2.67000008
   20.98139000  152.17999268    4.90999985    2.67000008
   20.98444557  154.39700317    4.90999985    2.67000008
   20.98777771  153.86900330    4.90999985    2.67000008
   20.99361229  153.86900330    4.90999985    2.67000008
   20.99777794  164.84500122    4.90999985    2.67000008
   21.00111198  150.88699341    4.90999985    2.67000008
   21.00444412  150.70399475    4.90999985    2.67000008
   21.00749969  153.35800171    4.90999985    2.67000008
   21.01083374  149.10499573    4.90999985    2.67000008
   21.01416588  161.22999573    4.90999985    2.67000008
   21.01722145  163.92199707    4.90999985    2.67000008
   21.02055550  155.94599915    4.90999985    2.67000008
   21.02388954  145.50399780    4.90999985    2.67000008
   21.02694511  156.05099487    4.90999985    2.67000008
   21.03027725  164.00100708    4.90999985    2.67000008
   21.03083229  164.56100464    4.90999985    2.67000008
   21.03666687  164.56100464    4.90999985    2.67000008
   21.04083252  160.22300720    4.90999985    2.67000008
   21.04388809  158.18600464    4.90999985    2.67000008
   21.04722214  158.22099304    4.90999985    2.67000008
   21.05027771  167.40600586    4.90999985    2.67000008
   21.05360985  154.80799866    4.90999985    2.67000008
   21.05694389  160.69299316    4.90999985    2.67000008
   21.05999947  157.08799744    4.90999985    2.67000008
   21.06333351  154.87600708    4.90999985    2.67000008
   21.06416512  159.26499939    4.90999985    2.67000008
   21.06694603  155.83299255    4.90999985    2.67000008
   21.07000160  155.67900085    4.90999985    2.67000008
   21.07333374  158.25500488    4.90999985    2.67000008
   21.07944489  158.25500488    4.90999985    2.67000008
   21.08361244  161.39199829    4.90999985    2.67000008
   21.08666801  158.07200623    4.90999985    2.67000008
   21.09000015  156.71099854    4.90999985    2.67000008
   21.09333420  159.12399292    4.90999985    2.67000008
   21.09638977  157.86900330    4.90999985    2.67000008
   21.09749985  164.23599243    4.90999985    2.67000008
   21.10027885  154.61399841    4.90999985    2.67000008
   21.10333443  154.80499268    4.90999985    2.67000008
   21.10666656  163.23500061    4.90999985    2.67000008
   21.11000061  169.40499878    4.90999985    2.67000008
   21.11305618  161.68400574    4.90999985    2.67000008
   21.11638832  164.01899719    4.90999985    2.67000008
   21.12222290  164.01899719    4.90999985    2.67000008
   21.12638855  161.77699280    4.90999985    2.67000008
   21.12972260  153.71899414    4.90999985    2.67000008
   21.13083267  162.99800110    4.90999985    2.67000008
   21.13333321  159.47799683    4.90999985    2.67000008
   21.13638878  151.67500305    4.90999985    2.67000008
   21.13972282  166.39199829    4.90999985    2.67000008
   21.14305496  157.45399475    4.90999985    2.67000008
   21.14611053  155.12800598    4.90999985    2.67000008
   21.14944458  155.75700378    4.90999985    2.67000008
   21.15250015  154.08000183    4.90999985    2.67000008
   21.15583229  156.76199341    4.90999985    2.67000008
   21.15916634  154.99299622    4.90999985    2.67000008
   21.16499901  154.99299622    4.90999985    2.67000008
   21.16916656  157.16799927    4.90999985    2.67000008
   21.17249870  155.68099976    4.90999985    2.67000008
   21.17583275  159.90600586    4.90999985    2.67000008
   21.17888832  166.28599548    4.90999985    2.67000008
   21.18222237  160.69299316    4.90999985    2.67000008
   21.18527603  151.40499878    4.90999985    2.67000008
   21.18861008  167.80799866    4.90999985    2.67000008
   21.19194412  165.37300110    4.90999985    2.67000008
   21.19499969  159.60000610    4.90999985    2.67000008
   21.19749832  163.83099365    4.90999985    2.67000008
   21.19888878  159.38800049    4.90999985    2.67000008
   21.20194435  165.53199768    4.90999985    2.67000008
   21.20805550  165.53199768    4.90999985    2.67000008
   21.21222305  168.12399292    4.90999985    2.67000008
   21.21527863  164.60800171    4.90999985    2.67000008
   21.21861076  171.96200562    4.90999985    2.67000008
   21.22166634  166.35000610    4.90999985    2.67000008
   21.22500038  150.87800598    4.90999985    2.67000008
   21.22833443  161.23599243    4.90999985    2.67000008
   21.23083305  156.40899658    4.90999985    2.67000008
   21.23194504  164.14100647    4.90999985    2.67000008
   21.23500061  156.33799744    4.90999985    2.67000008
   21.23833275  156.73899841    4.90999985    2.67000008
   21.24166679  164.90699768    4.90999985    2.67000008
   21.24472237  159.82299805    4.90999985    2.67000008
   21.25083351  159.82299805    4.90999985    2.67000008
   21.25499916  160.10400391    4.90999985    2.67000008
   21.25805473  157.51699829    4.90999985    2.67000008
   21.26138878  160.60899353    4.90999985    2.67000008
   21.26416588  164.89999390    4.90999985    2.67000008
   21.26499939  158.21200562    4.90999985    2.67000008
   21.26805496  173.23300171    4.90999985    2.67000008
   21.27138901  165.81599426    4.90999985    2.67000008
   21.27472115  162.39300537    4.90999985    2.67000008
   21.27777672  165.45399475    4.90999985    2.67000008
   21.28111076  162.23500061    4.90999985    2.67000008
   21.28416634  170.04400635    4.90999985    2.67000008
   21.28750038  164.98399353    4.90999985    2.67000008
   21.29361153  164.98399353    4.90999985    2.67000008
   21.29777718  165.23500061    4.90999985    2.67000008
   21.30111122  167.71600342    4.90999985    2.67000008
   21.30416679  168.88999939    4.90999985    2.67000008
   21.30749893  169.67500305    4.90999985    2.67000008
   21.31083298  168.26499939    4.90999985    2.67000008
   21.31388855  159.23399353    4.90999985    2.67000008
   21.31722260  165.99699402    4.90999985    2.67000008
   21.32055664  182.67300415    4.90999985    2.67000008
   21.32361221  177.62699890    4.90999985    2.67000008
   21.32694626  171.34500122    4.90999985    2.67000008
   21.33000183  216.01699829    4.90999985    2.67000008
   21.33083344  216.19000244    4.90999985    2.67000008
   21.33638954  216.19000244    4.90999985    2.67000008
   21.34055710  275.50299072    4.90999985    2.67000008
   21.34388924  221.96699524    4.90999985    2.67000008
   21.34722328  184.30200195    4.90999985    2.67000008
   21.35027885  222.01600647    4.90999985    2.67000008
   21.35361099  246.67300415    4.90999985    2.67000008
   21.35694504  215.90899658    4.90999985    2.67000008
   21.36000061  233.22900391    4.90999985    2.67000008
   21.36333466  219.92599487    4.90999985    2.67000008
   21.36416626  189.68400574    4.90999985    2.67000008
   21.36694527  174.84300232    4.90999985    2.67000008
   21.37000084  186.10299683    4.90999985    2.67000008
   21.37333298  198.08700562    4.90999985    2.67000008
   21.37944412  198.08700562    4.90999985    2.67000008
   21.38361168  176.60499573    4.90999985    2.67000008
   21.38666725  174.32099915    4.90999985    2.67000008
   21.38999939  177.32600403    4.90999985    2.67000008
   21.39305496  190.85899353    4.90999985    2.67000008
   21.39638901  197.12199402    4.90999985    2.67000008
   21.39749908  187.18899536    4.90999985    2.67000008
   21.39999962  174.60499573    4.90999985    2.67000008
   21.40305519  171.01600647    4.90999985    2.67000008
   21.40638924  181.64300537    4.90999985    2.67000008
   21.40972137  186.55799866    4.90999985    2.67000008
   21.41277695  185.52900696    4.90999985    2.67000008
   21.41611099  177.45100403    4.90999985    2.67000008
   21.42222214  177.45100403    4.90999985    2.67000008
   21.42638779  166.49600220    4.90999985    2.67000008
   21.42944336  185.82800293    4.90999985    2.67000008
   21.43083191  179.26899719    4.90999985    2.67000008
   21.43333244  174.07699585    4.90999985    2.67000008
   21.43638802  172.49200439    4.90999985    2.67000008
   21.43972206  174.27699280    4.90999985    2.67000008
   21.44305420  169.55000305    4.90999985    2.67000008
   21.44610977  168.18299866    4.90999985    2.67000008
   21.44944382  173.02499390    4.90999985    2.67000008
   21.45277786  174.89599609    4.90999985    2.67000008
   21.45583344  171.27200317    4.90999985    2.67000008
   21.45916748  179.50999451    4.90999985    2.67000008
   21.46500015  179.50999451    4.90999985    2.67000008
   21.46916771  177.14999390    4.90999985    2.67000008
   21.47249985  172.90299988    4.90999985    2.67000008
   21.47555542  169.69700623    4.90999985    2.67000008
   21.47888947  181.34500122    4.90999985    2.67000008
   21.48222351  171.09800720    4.90999985    2.67000008
   21.48527718  186.20899963    4.90999985    2.67000008
   21.48861122  170.75000000    4.90999985    2.67000008
   21.49166679  180.48500061    4.90999985    2.67000008
   21.49500084  183.53199768    4.90999985    2.67000008
   21.49749947  177.15199280    4.90999985    2.67000008
   21.51805496  177.15199280    4.90999985    2.67000008
   21.52222252  179.50000000    4.90999985    2.67000008
   21.52555466  167.41099548    4.90999985    2.67000008
   21.52888870  178.62600708    4.90999985    2.67000008
   21.53083229  169.47200012    4.90999985    2.67000008
   21.53249931  174.07499695    4.90999985    2.67000008
   21.53583336  177.83099365    4.90999985    2.67000008
   21.53888893  177.86900330    4.90999985    2.67000008
   21.54222107  169.73300171    4.90999985    2.67000008
   21.54555511  171.01899719    4.90999985    2.67000008
   21.54861069  171.59199524    4.90999985    2.67000008
   21.55194283  177.74400330    4.90999985    2.67000008
   21.55499840  172.75500488    4.90999985    2.67000008
   21.56083298  172.75500488    4.90999985    2.67000008
   21.56499863  171.35099792    4.90999985    2.67000008
   21.56833458  175.58200073    4.90999985    2.67000008
   21.57166672  187.19400024    4.90999985    2.67000008
   21.57472229  174.04899597    4.90999985    2.67000008
   21.57805634  174.95100403    4.90999985    2.67000008
   21.58111191  183.15600586    4.90999985    2.67000008
   21.58444595  184.41600037    4.90999985    2.67000008
   21.58777809  176.58200073    4.90999985    2.67000008
   21.59083366  195.82099915    4.90999985    2.67000008
   21.59416771  175.55999756    4.90999985    2.67000008
   21.59749985  192.05900574    4.90999985    2.67000008
   21.59777832  180.84899902    4.90999985    2.67000008
   21.60388947  180.84899902    4.90999985    2.67000008
   21.60777855  185.36300659    4.90999985    2.67000008
   21.61111069  180.92100525    4.90999985    2.67000008
   21.61444473  185.05099487    4.90999985    2.67000008
   21.61750031  186.43800354    4.90999985    2.67000008
   21.62083435  181.05700684    4.90999985    2.67000008
   21.62416649  184.43099976    4.90999985    2.67000008
   21.62722206  184.14700317    4.90999985    2.67000008
   21.63055611  182.40800476    4.90999985    2.67000008
   21.63111115  180.08099365    4.90999985    2.67000008
   21.63416672  175.90800476    4.90999985    2.67000008
   21.63750076  183.13000488    4.90999985    2.67000008
   21.64055634  183.84700012    4.90999985    2.67000008
   21.64666748  183.84700012    4.90999985    2.67000008
   21.65083313  186.80900574    4.90999985    2.67000008
   21.65388870  182.50000000    4.90999985    2.67000008
   21.65722275  177.41999817    4.90999985    2.67000008
   21.66055489  175.68899536    4.90999985    2.67000008
   21.66361046  174.64999390    4.90999985    2.67000008
   21.66444397  179.49400330    4.90999985    2.67000008
   21.66722107  176.70799255    4.90999985    2.67000008
   21.67055511  182.07800293    4.90999985    2.67000008
   21.67361069  184.83799744    4.90999985    2.67000008
   21.67694473  186.02299500    4.90999985    2.67000008
   21.68027687  194.09399414    4.90999985    2.67000008
   21.68333244  193.55999756    4.90999985    2.67000008
   21.68944359  193.55999756    4.90999985    2.67000008
   21.69361115  282.78799438    4.90999985    2.67000008
   21.69694328  252.48599243    4.90999985    2.67000008
   21.69805527  246.85299683    4.90999985    2.67000008
   21.70027924  167.64799500    4.90999985    2.67000008
   21.70361137   78.84140015    4.90999985    2.67000008
   21.70666695   46.52709961    4.90999985    2.67000008
   21.71000099   -1.00000000    4.90999985    2.67000008
   21.71333504   -1.00000000    4.90999985    2.67000008
   21.71638870   -1.00000000    4.90999985    2.67000008
   21.71972275   -1.00000000    4.90999985    2.67000008
   21.72305679   -1.00000000    4.90999985    2.67000008
   21.72611237   -1.00000000    4.90999985    2.67000008
   21.73638916   -1.00000000    4.90999985    2.67000008
   21.73972321   -1.00000000    4.90999985    2.67000008
   21.74277878   -1.00000000    4.90999985    2.67000008
   21.74611092   -1.00000000    4.90999985    2.67000008
   21.74916649   -1.00000000    4.90999985    2.67000008
   21.75250053   -1.00000000    4.90999985    2.67000008
   21.75583267   -1.00000000    4.90999985    2.67000008
   21.75888824   -1.00000000    4.90999985    2.67000008
   21.76222229   -1.00000000    4.90999985    2.67000008
   21.76583290   -1.00000000    4.90999985    2.67000008
   21.76888847   -1.00000000    4.90999985    2.67000008
   21.77916718   -1.00000000    4.90999985    2.67000008
   21.78249931   -1.00000000    4.90999985    2.67000008
   21.78555489   -1.00000000    4.90999985    2.67000008
   21.78888893   -1.00000000    4.90999985    2.67000008
   21.79222107   -1.00000000    4.90999985    2.67000008
   21.79527664   -1.00000000    4.90999985    2.67000008
   21.79888916   -1.00000000    4.90999985    2.67000008
   21.80194283   -1.00000000    4.90999985    2.67000008
   21.80527687   -1.00000000    4.90999985    2.67000008
   21.80861092   -1.00000000    4.90999985    2.67000008
   21.81166649   -1.00000000    4.90999985    2.67000008
   21.82194519   -1.00000000    4.90999985    2.67000008
   21.82527924   -1.00000000    4.90999985    2.67000008
   21.82861137   -1.00000000    4.90999985    2.67000008
