    HOUR (UT)   FLARE FACTOR    SKY TESTER    SUN TESTER
   12.24222279   -1.00000000   -1.00000000   -1.00000000
   12.31333351  200.11900330    4.90999985    2.59999990
   12.31666660  200.84899902    4.90999985    2.57999992
   12.31999969  202.65400696    4.90999985    2.57999992
   12.32305527  199.91999817    4.90999985    2.59999990
   12.32638836  205.47399902    4.90999985    2.59999990
   12.32972240  202.05200195    4.90999985    2.57999992
   12.33388901  202.05200195    4.90999985    2.59999990
   12.33777714  197.29400635    4.90999985    2.59999990
   12.34111118  190.32600403    4.90999985    2.59999990
   12.34444427  203.19799805    4.90999985    2.59999990
   12.34666634  202.14599609    4.90999985    2.59999990
   12.34805489  199.88699341    4.90999985    2.59999990
   12.35138893  201.61199951    4.90999985    2.59999990
   12.35444450  202.38800049    4.90999985    2.59999990
   12.35777855  202.79100037    4.90999985    2.61999989
   12.36111164  199.66400146    4.90999985    2.59999990
   12.36416721  200.50300598    4.90999985    2.59999990
   12.36750031  197.41799927    4.90999985    2.61999989
   12.37055588  198.34500122    4.90999985    2.61999989
   12.37666702  198.34500122    4.90999985    2.59999990
   12.38083363  197.42599487    4.90999985    2.59999990
   12.38388920  199.22399902    4.90999985    2.59999990
   12.38722229  201.26300049    4.90999985    2.61999989
   12.39055538  209.26699829    4.90999985    2.61999989
   12.39361095  194.29299927    4.90999985    2.61999989
   12.39694405  202.63000488    4.90999985    2.61999989
   12.40027714  194.83099365    4.90999985    2.61999989
   12.40333271  197.03900146    4.90999985    2.61999989
   12.40666676  191.07200623    4.90999985    2.61999989
   12.40972137  195.25199890    4.90999985    2.61999989
   12.41305542  197.90800476    4.90999985    2.61999989
   12.41361046  196.29400635    4.90999985    2.61999989
   12.41944504  196.29400635    4.90999985    2.61999989
   12.42361164  187.73599243    4.90999985    2.61999989
   12.42666721  205.41600037    4.90999985    2.61999989
   12.43000031  200.91400146    4.90999985    2.64000010
   12.43333340  194.68899536    4.90999985    2.64000010
   12.43638897  193.84899902    4.90999985    2.61999989
   12.43972206  209.16200256    4.90999985    2.61999989
   12.44305515  199.46699524    4.90999985    2.61999989
   12.44611073  191.24499512    4.90999985    2.61999989
   12.44694424  199.78300476    4.90999985    2.61999989
   12.44999981  195.11500549    4.90999985    2.64000010
   12.45305538  189.64900208    4.90999985    2.64000010
   12.45638847  207.54699707    4.90999985    2.64000010
   12.46222210  207.54699707    4.90999985    2.64000010
   12.46638870  214.19900513    4.90999985    2.64000010
   12.46972179  203.48100281    4.90999985    2.64000010
   12.47277737  210.47599792    4.90999985    2.64000010
   12.47611046  199.35499573    4.90999985    2.64000010
   12.47944355  201.15100098    4.90999985    2.64000010
   12.48027706  212.50500488    4.90999985    2.64000010
   12.48305511  223.12699890    4.90999985    2.64000010
   12.48611164  225.60800171    4.90999985    2.64000010
   12.48944473  226.61199951    4.90999985    2.64000010
   12.49277782  207.82800293    4.90999985    2.64000010
   12.49583340  216.45799255    4.90999985    2.66000009
   12.49916649  210.89999390    4.90999985    2.64000010
   12.50527763  210.89999390    4.90999985    2.64000010
   12.50916672  204.23899841    4.90999985    2.64000010
   12.51249981  186.09599304    4.90999985    2.64000010
   12.51361084  195.84500122    4.90999985    2.64000010
   12.51666641  205.52900696    4.90999985    2.66000009
   12.51999950  197.62899780    4.90999985    2.66000009
   12.52305508  201.02499390    4.90999985    2.66000009
   12.52638817  193.59500122    4.90999985    2.66000009
   12.52972221  204.78199768    4.90999985    2.66000009
   12.53277779  199.29100037    4.90999985    2.64000010
   12.53611183  207.91000366    4.90999985    2.66000009
   12.53944492  181.69099426    4.90999985    2.67000008
   12.54250050  185.73300171    4.90999985    2.66000009
   12.54805565  185.73300171    4.90999985    2.66000009
   12.55222225  182.85000610    4.90999985    2.66000009
   12.55527782  184.83500671    4.90999985    2.66000009
   12.55861092  176.47599792    4.90999985    2.67000008
   12.56166649  186.42799377    4.90999985    2.66000009
   12.56500053  197.30499268    4.90999985    2.66000009
   12.56833363  193.81199646    4.90999985    2.67000008
   12.57138920  201.86700439    4.90999985    2.67000008
   12.57472229  186.02499390    4.90999985    2.66000009
   12.57805538  187.49899292    4.90999985    2.67000008
   12.58027744  199.82400513    4.90999985    2.67000008
   12.58166695  200.85899353    4.90999985    2.67000008
   12.58472157  186.13900757    4.90999985    2.66000009
   12.59083271  186.13900757    4.90999985    2.67000008
   12.59499931  200.02900696    4.90999985    2.66000009
   12.59805489  192.34899902    4.90999985    2.67000008
   12.60138893  195.69799805    4.90999985    2.67000008
   12.60472298  193.67700195    4.90999985    2.66000009
   12.60777855  180.75900269    4.90999985    2.67000008
   12.61111164  194.23100281    4.90999985    2.67000008
   12.61361122  192.03900146    4.90999985    2.67000008
   12.61472225  195.60099792    4.90999985    2.67000008
   12.61777782  186.46899414    4.90999985    2.67000008
   12.62111092  183.96800232    4.90999985    2.67000008
   12.62444496  178.96800232    4.90999985    2.67000008
   12.62750053  167.85499573    4.90999985    2.67000008
   12.63361073  167.85499573    4.90999985    2.67000008
   12.63777733  190.86700439    4.90999985    2.67000008
   12.64111137  190.45899963    4.90999985    2.69000006
   12.64416695  185.83000183    4.90999985    2.69000006
   12.64694405  178.94799805    4.90999985    2.67000008
   12.64805508  187.03799438    4.90999985    2.69000006
   12.65111065  179.78799438    4.90999985    2.67000008
   12.65444374  191.75799561    4.90999985    2.67000008
   12.65777779  180.68800354    4.90999985    2.69000006
   12.66083336  175.50599670    4.90999985    2.69000006
   12.66416645  170.13000488    4.90999985    2.69000006
   12.66750050  181.37600708    4.90999985    2.69000006
   12.67055607  175.48500061    4.90999985    2.69000006
   12.67666721  175.48500061    4.90999985    2.69000006
   12.68055630  173.26800537    4.90999985    2.69000006
   12.68388939  176.33299255    4.90999985    2.69000006
   12.68722248  171.20300293    4.90999985    2.69000006
   12.69027805  173.22999573    4.90999985    2.69000006
   12.69361115  191.63099670    4.90999985    2.69000006
   12.69666672  185.37199402    4.90999985    2.69000006
   12.69999981  186.44700623    4.90999985    2.69000006
   12.70333290  180.92900085    4.90999985    2.69000006
   12.70638847  185.98399353    4.90999985    2.69000006
   12.70972157  174.59199524    4.90999985    2.69000006
   12.71305561  186.62600708    4.90999985    2.69000006
   12.71361065  176.24699402    4.90999985    2.71000004
   12.71944427  176.24699402    4.90999985    2.69000006
   12.72361088  192.60899353    4.90999985    2.69000006
   12.72666645  176.99499512    4.90999985    2.71000004
   12.72999954  192.63400269    4.90999985    2.71000004
   12.73305511  178.21600342    4.90999985    2.69000006
   12.73638916  186.31199646    4.90999985    2.69000006
   12.73972225  183.27099609    4.90999985    2.69000006
   12.74277782  176.22000122    4.90999985    2.71000004
   12.74611092  183.32400513    4.90999985    2.71000004
   12.74694443  171.59899902    4.90999985    2.69000006
   12.74972248  182.87100220    4.90999985    2.71000004
   12.75277805  186.47799683    4.90999985    2.71000004
   12.75611115  174.16000366    4.90999985    2.71000004
   12.76222229  174.16000366    4.90999985    2.69000006
   12.76638889  179.77200317    4.90999985    2.71000004
   12.76944447  173.64300537    4.90999985    2.71000004
   12.77277756  167.63900757    4.90999985    2.69000006
   12.77611065  173.47200012    4.90999985    2.71000004
   12.77916622  169.26800537    4.90999985    2.71000004
   12.78027725  175.29299927    4.90999985    2.71000004
   12.78305531  175.25100708    4.90999985    2.71000004
   12.78611183  187.34300232    4.90999985    2.71000004
   12.78944492  162.83599854    4.90999985    2.71000004
   12.79277802  174.46099854    4.90999985    2.71000004
   12.79583359  169.72200012    4.90999985    2.71000004
   12.79916668  181.50500488    4.90999985    2.73000002
   12.80500031  181.50500488    4.90999985    2.71000004
   12.80916691  164.55799866    4.90999985    2.71000004
   12.81250000  167.47300720    4.90999985    2.73000002
   12.81361103  181.08999634    4.90999985    2.71000004
   12.81611156  188.15199280    4.90999985    2.71000004
   12.81916618  182.87399292    4.90999985    2.71000004
   12.82250023  180.72399902    4.90999985    2.71000004
   12.82583332  176.23800659    4.90999985    2.73000002
   12.82888889  177.16900635    4.90999985    2.71000004
   12.83222198  173.00700378    4.90999985    2.73000002
   12.83555508  179.20399475    4.90999985    2.73000002
   12.83861065  179.77699280    4.90999985    2.73000002
   12.84194374  158.79800415    4.90999985    2.73000002
   12.84777737  158.79800415    4.90999985    2.73000002
   12.85194492  164.53300476    4.90999985    2.73000002
   12.85527802  171.21600342    4.90999985    2.73000002
   12.85861111  166.03100586    4.90999985    2.73000002
   12.86166668  175.84199524    4.90999985    2.73000002
   12.86500072  179.88299561    4.90999985    2.73000002
   12.86805534  164.53500366    4.90999985    2.73000002
   12.87138939  180.72900391    4.90999985    2.73000002
   12.87472248  162.42100525    4.90999985    2.73000002
   12.87777805  170.45100403    4.90999985    2.73000002
   12.88027763  175.32699585    4.90999985    2.73000002
   12.88166714  175.09700012    4.90999985    2.73000002
   12.88472176  169.47099304    4.90999985    2.73000002
   12.89083290  169.47099304    4.90999985    2.73000002
   12.89499950  169.76499939    4.90999985    2.75000000
   12.89805508  170.57499695    4.90999985    2.73000002
   12.90138817  174.96899414    4.90999985    2.73000002
   12.90444374  174.41299438    4.90999985    2.73000002
   12.90777779  159.69200134    4.90999985    2.73000002
   12.91111088  161.16600037    4.90999985    2.73000002
   12.91361046  168.30999756    4.90999985    2.73000002
   12.91472149  168.74800110    4.90999985    2.73000002
   12.91777802  173.58599854    4.90999985    2.73000002
   12.92111111  159.08700562    4.90999985    2.73000002
   12.92444515  167.03700256    4.90999985    2.75000000
   12.92750072  163.65400696    4.90999985    2.75000000
   12.93361092  163.65400696    4.90999985    2.75000000
   12.93777752  164.91700745    4.90999985    2.73000002
   12.94083309  168.36199951    4.90999985    2.73000002
   12.94416714  164.13600159    4.90999985    2.75000000
   12.94694424  161.91900635    4.90999985    2.75000000
   12.94777775  155.16299438    4.90999985    2.75000000
   12.95083332  167.91999817    4.90999985    2.75000000
   12.95416641  169.45599365    4.90999985    2.75000000
   12.95749950  172.71200562    4.90999985    2.75000000
   12.96055508  179.78100586    4.90999985    2.75000000
   12.96388912  163.89700317    4.90999985    2.75000000
   12.96722221  172.08599854    4.90999985    2.75000000
   12.97027779  167.26100159    4.90999985    2.75000000
   12.97638798  167.26100159    4.90999985    2.75000000
   12.98055553  169.89500427    4.90999985    2.75000000
   12.98388958  158.88499451    4.90999985    2.75000000
   12.98694515  168.44700623    4.90999985    2.75000000
   12.99027824  166.26400757    4.90999985    2.76999998
   12.99361134  168.35499573    4.90999985    2.75000000
   12.99666691  171.21499634    4.90999985    2.76999998
   13.00000000  172.14599609    4.90999985    2.75000000
   13.00305557  176.51699829    4.90999985    2.76999998
   13.00638866  182.27299500    4.90999985    2.76999998
   13.00972176  159.50900269    4.90999985    2.75000000
   13.01277733  175.93899536    4.90999985    2.75000000
   13.01361084  181.04600525    4.90999985    2.76999998
   13.01916599  181.04600525    4.90999985    2.76999998
   13.02333355  175.21499634    4.90999985    2.75000000
   13.02666664  170.10800171    4.90999985    2.75000000
   13.02972221  171.29699707    4.90999985    2.76999998
   13.03305531  162.43099976    4.90999985    2.76999998
   13.03638935  172.33799744    4.90999985    2.76999998
   13.03944492  168.53799438    4.90999985    2.76999998
   13.04277802  174.11999512    4.90999985    2.76999998
   13.04611111  156.93400574    4.90999985    2.76999998
   13.04694462  169.43899536    4.90999985    2.75000000
   13.04972267  159.09199524    4.90999985    2.76999998
   13.05305576  171.69999695    4.90999985    2.76999998
   13.05611134  171.86500549    4.90999985    2.76999998
   13.06222248  171.86500549    4.90999985    2.76999998
   13.06611156  166.61799622    4.90999985    2.75000000
   13.06944466  157.94200134    4.90999985    2.78999996
   13.07277775  171.08999634    4.90999985    2.78999996
   13.07583332  163.98899841    4.90999985    2.76999998
   13.07916641  157.17900085    4.90999985    2.78999996
   13.08027744  160.55700684    4.90999985    2.76999998
   13.08277798  166.18899536    4.90999985    2.76999998
   13.08611107  163.89799500    4.90999985    2.75000000
   13.08916664  162.67900085    4.90999985    2.76999998
   13.09249973  164.51699829    4.90999985    2.76999998
   13.09555531  166.00300598    4.90999985    2.76999998
   13.09888840  176.76800537    4.90999985    2.76999998
   13.10500050  176.76800537    4.90999985    2.78999996
   13.10916710  175.39399719    4.90999985    2.78999996
   13.11222267  167.16099548    4.90999985    2.78999996
   13.11361122  169.23199463    4.90999985    2.76999998
   13.11583328  171.18699646    4.90999985    2.78999996
   13.11916637  163.04800415    4.90999985    2.78999996
   13.12222195  167.92300415    4.90999985    2.76999998
   13.12555599  164.30299377    4.90999985    2.78999996
   13.12861156  166.75799561    4.90999985    2.76999998
   13.13194466  165.47999573    4.90999985    2.78999996
   13.13527775  163.56700134    4.90999985    2.76999998
   13.13833332  173.18800354    4.90999985    2.76999998
   13.14166641  163.47700500    4.90999985    2.76999998
   13.14777756  163.47700500    4.90999985    2.78999996
   13.15194416  142.43200684    4.90999985    2.78999996
   13.15527725  160.25700378    4.90999985    2.78999996
   13.15833282  164.27299500    4.90999985    2.78999996
   13.16166592  167.52000427    4.90999985    2.78999996
   13.16499996  167.69700623    4.90999985    2.78999996
   13.16805553  171.83299255    4.90999985    2.78999996
   13.17138958  171.60299683    4.90999985    2.78999996
   13.17444515  170.96099854    4.90999985    2.78999996
   13.17777824  168.22300720    4.90999985    2.78999996
   13.18027782  162.53399658    4.90999985    2.78999996
   13.18138885  174.86900330    4.90999985    2.78999996
   13.18472195  164.79100037    4.90999985    2.78999996
   13.19055557  164.79100037    4.90999985    2.78999996
   13.19472218  163.25100708    4.90999985    2.78999996
   13.19805527  171.42900085    4.90999985    2.78999996
   13.20111084  149.90400696    4.90999985    2.78999996
   13.20444393  162.82099915    4.90999985    2.78999996
   13.20777798  161.80499268    4.90999985    2.78999996
   13.21083355  158.66299438    4.90999985    2.78999996
   13.21361065  153.21800232    4.90999985    2.78999996
   13.21472168  165.58999634    4.90999985    2.80999994
   13.21777725  153.14999390    4.90999985    2.80999994
   13.22111034  155.57499695    4.90999985    2.80999994
   13.22444439  158.95599365    4.90999985    2.80999994
   13.22749996  160.92999268    4.90999985    2.80999994
   13.23333359  160.92999268    4.90999985    2.80999994
   13.23750019  161.37199402    4.90999985    2.80999994
   13.24083328  166.16799927    4.90999985    2.80999994
   13.24388885  168.49000549    4.90999985    2.80999994
   13.24694443  172.97900391    4.90999985    2.80999994
   13.24777794  165.14399719    4.90999985    2.78999996
   13.25083351  172.56700134    4.90999985    2.80999994
   13.25416660  166.60699463    4.90999985    2.80999994
   13.25749969  167.73100281    4.90999985    2.80999994
   13.26055527  179.29400635    4.90999985    2.80999994
   13.26388931  166.78599548    4.90999985    2.80999994
   13.26722240  166.03500366    4.90999985    2.80999994
   13.27027798  172.68899536    4.90999985    2.80999994
   13.27638817  172.68899536    4.90999985    2.80999994
   13.28055573  170.60699463    4.90999985    2.80999994
   13.28361130  177.99400330    4.90999985    2.80999994
   13.28694534  172.95100403    4.90999985    2.80999994
   13.29027843  167.44200134    4.90999985    2.80999994
   13.29333401  166.82200623    4.90999985    2.80999994
   13.29666710  171.01699829    4.90999985    2.80999994
   13.29972267  164.75900269    4.90999985    2.80999994
   13.30305576  174.10299683    4.90999985    2.80999994
   13.30638885  165.18200684    4.90999985    2.80999994
   13.30944443  164.55099487    4.90999985    2.80999994
   13.31277752  145.16499329    4.90999985    2.78999996
   13.31361103  172.74200439    4.90999985    2.80999994
   13.33444405  172.74200439    4.90999985    2.80999994
   13.33861065  162.80900574    4.90999985    2.80999994
   13.34166622  157.82400513    4.90999985    2.80999994
   13.34499931  161.84899902    4.90999985    2.82999992
   13.34694386  166.40400696    4.90999985    2.80999994
   13.34861088  157.97599792    4.90999985    2.82999992
   13.35194492  161.46600342    4.90999985    2.80999994
   13.35527802  156.36099243    4.90999985    2.80999994
   13.35833359  168.83599854    4.90999985    2.82999992
   13.36166668  159.83599854    4.90999985    2.82999992
   13.36472225  171.84800720    4.90999985    2.80999994
   13.36805534  167.79299927    4.90999985    2.82999992
   13.37138939  159.10600281    4.90999985    2.80999994
   13.37722206  159.10600281    4.90999985    2.82999992
   13.38111115  164.44900513    4.90999985    2.80999994
   13.38444424  162.66099548    4.90999985    2.82999992
   13.38777733  156.34399414    4.90999985    2.82999992
   13.39083290  149.49499512    4.90999985    2.82999992
   13.39416695  163.32200623    4.90999985    2.82999992
   13.39750004  162.76499939    4.90999985    2.82999992
   13.40055561  157.63400269    4.90999985    2.82999992
   13.40388870  148.62699890    4.90999985    2.82999992
   13.40694427  162.64199829    4.90999985    2.80999994
   13.41027737  152.81599426    4.90999985    2.80999994
   13.41361046  167.94400024    4.90999985    2.82999992
   13.41416645  158.20100403    4.90999985    2.82999992
   13.42000008  158.20100403    4.90999985    2.82999992
   13.42416668  162.42500305    4.90999985    2.82999992
   13.42722225  158.24400330    4.90999985    2.82999992
   13.43055630  148.01800537    4.90999985    2.82999992
   13.43388939  159.06700134    4.90999985    2.82999992
   13.43694496  152.29899597    4.90999985    2.82999992
   13.44027805  150.80900574    4.90999985    2.82999992
   13.44333363  146.05299377    4.90999985    2.82999992
   13.44666672  153.80599976    4.90999985    2.80999994
   13.44750023  149.02999878    4.90999985    2.82999992
   13.45027733  156.79100037    4.90999985    2.82999992
   13.45361137  152.21000671    4.90999985    2.82999992
   13.45694447  152.64399719    4.90999985    2.84999990
   13.46277714  152.64399719    4.90999985    2.82999992
   13.46694374  164.43800354    4.90999985    2.84999990
   13.47027779  149.91900635    4.90999985    2.84999990
   13.47333336  153.96499634    4.90999985    2.82999992
   13.47666645  152.81900024    4.90999985    2.84999990
   13.47972202  151.39100647    4.90999985    2.82999992
   13.48083305  148.71200562    4.90999985    2.82999992
   13.48333359  146.72200012    4.90999985    2.84999990
   13.48666668  154.92999268    4.90999985    2.82999992
   13.49000072  153.20799255    4.90999985    2.84999990
   13.49305534  153.71899414    4.90999985    2.84999990
   13.49638939  156.70599365    4.90999985    2.82999992
   13.49944496  159.43200684    4.90999985    2.84999990
   13.50555515  159.43200684    4.90999985    2.82999992
   13.50972176  153.54699707    4.90999985    2.84999990
   13.51305580  159.99600220    4.90999985    2.84999990
   13.51416683  155.42399597    4.90999985    2.84999990
   13.51666641  163.86500549    4.90999985    2.84999990
   13.51999950  169.41900635    4.90999985    2.84999990
   13.52333355  154.95199585    4.90999985    2.82999992
   13.52638817  160.91600037    4.90999985    2.84999990
   13.52972221  163.56300354    4.90999985    2.82999992
   13.53277779  159.15899658    4.90999985    2.84999990
   13.53611183  161.22099304    4.90999985    2.82999992
   13.53944492  159.01100159    4.90999985    2.84999990
   13.54250050  165.24200439    4.90999985    2.84999990
   13.54861164  165.24200439    4.90999985    2.84999990
   13.55249977  153.77600098    4.90999985    2.84999990
   13.55583382  157.87699890    4.90999985    2.84999990
   13.55916691  149.44099426    4.90999985    2.84999990
   13.56222248  159.05900574    4.90999985    2.84999990
   13.56555557  166.40199280    4.90999985    2.84999990
   13.56888866  158.63200378    4.90999985    2.84999990
   13.57194424  154.18899536    4.90999985    2.84999990
   13.57527733  165.39700317    4.90999985    2.84999990
   13.57833290  157.47000122    4.90999985    2.84999990
   13.58083344  168.92599487    4.90999985    2.84999990
   13.58194447  160.03199768    4.90999985    2.82999992
   13.58527756  162.71899414    4.90999985    2.84999990
   13.59138870  162.71899414    4.90999985    2.84999990
   13.59555531  170.01499939    4.90999985    2.84999990
   13.59861088  160.54800415    4.90999985    2.84999990
   13.60194492  158.62800598    4.90999985    2.84999990
   13.60527802  157.32800293    4.90999985    2.84999990
   13.60833359  155.22399902    4.90999985    2.84999990
   13.61166668  148.04100037    4.90999985    2.86999989
   13.61416721  152.73899841    4.90999985    2.84999990
   13.61527824  153.57600403    4.90999985    2.84999990
   13.61861134  152.20100403    4.90999985    2.84999990
   13.62194443  147.87399292    4.90999985    2.86999989
   13.62500000  156.44900513    4.90999985    2.84999990
   13.62833309  149.23500061    4.90999985    2.84999990
   13.63416672  149.23500061    4.90999985    2.84999990
   13.63833332  153.43600464    4.90999985    2.84999990
   13.64166641  152.71699524    4.90999985    2.86999989
   13.64472198  150.72300720    4.90999985    2.84999990
   13.64750004  153.72799683    4.90999985    2.86999989
   13.64833355  157.52000427    4.90999985    2.86999989
   13.65166664  151.96000671    4.90999985    2.86999989
   13.65499973  151.88000488    4.90999985    2.84999990
   13.65805531  149.28700256    4.90999985    2.84999990
   13.66138840  153.31100464    4.90999985    2.84999990
   13.66444397  155.07400513    4.90999985    2.84999990
   13.66777802  155.74600220    4.90999985    2.86999989
   13.67111111  155.27900696    4.90999985    2.84999990
   13.67694473  155.27900696    4.90999985    2.86999989
   13.68111134  153.00900269    4.90999985    2.86999989
   13.68444443  149.53700256    4.90999985    2.86999989
   13.68750000  141.55400085    4.90999985    2.86999989
   13.69083309  150.68899536    4.90999985    2.86999989
   13.69416714  150.28799438    4.90999985    2.86999989
   13.69722271  148.63400269    4.90999985    2.84999990
   13.70055580  159.27299500    4.90999985    2.86999989
   13.70388889  157.89900208    4.90999985    2.86999989
   13.70694447  151.25500488    4.90999985    2.86999989
   13.71027756  154.05599976    4.90999985    2.89000010
   13.71333313  151.73699951    4.90999985    2.86999989
   13.71416664  159.17799377    4.90999985    2.86999989
   13.71999931  159.17799377    4.90999985    2.86999989
   13.72388840  158.58900452    4.90999985    2.86999989
   13.72722149  157.59599304    4.90999985    2.86999989
   13.73055553  156.13499451    4.90999985    2.84999990
   13.73361111  158.31500244    4.90999985    2.84999990
   13.73694515  156.84399414    4.90999985    2.86999989
   13.74027824  152.32299805    4.90999985    2.86999989
   13.74333382  159.99099731    4.90999985    2.86999989
   13.74666691  149.77099609    4.90999985    2.86999989
   13.74750042  156.15400696    4.90999985    2.86999989
   13.75000000  156.93200684    4.90999985    2.86999989
   13.75333309  150.84100342    4.90999985    2.86999989
   13.75666714  155.57099915    4.90999985    2.86999989
   13.76277733  155.57099915    4.90999985    2.86999989
   13.76694393  149.20799255    4.90999985    2.86999989
   13.76999950  157.07299805    4.90999985    2.86999989
   13.77333355  153.46099854    4.90999985    2.84999990
   13.77666664  160.13299561    4.90999985    2.86999989
   13.77972221  153.94599915    4.90999985    2.86999989
   13.78083324  161.12399292    4.90999985    2.86999989
   13.78333378  152.66799927    4.90999985    2.86999989
   13.78666687  159.65299988    4.90999985    2.86999989
   13.79000092  158.90699768    4.90999985    2.86999989
   13.79305553  161.69099426    4.90999985    2.86999989
   13.79638958  153.30299377    4.90999985    2.86999989
   13.79972267  150.26100159    4.90999985    2.86999989
   13.80555534  150.26100159    4.90999985    2.86999989
   13.80972195  157.21400452    4.90999985    2.86999989
   13.81305599  157.72500610    4.90999985    2.86999989
   13.81416702  157.43099976    4.90999985    2.86999989
   13.81638908  154.10400391    4.90999985    2.86999989
   13.81972218  158.94000244    4.90999985    2.86999989
   13.82305527  160.11099243    4.90999985    2.86999989
   13.82611084  157.13900757    4.90999985    2.86999989
   13.82944393  147.46499634    4.90999985    2.86999989
   13.83277798  149.96899414    4.90999985    2.86999989
   13.83583260  154.83999634    4.90999985    2.86999989
   13.83916664  154.34899902    4.90999985    2.86999989
   13.84222221  149.21099854    4.90999985    2.86999989
   13.84833336  149.21099854    4.90999985    2.86999989
   13.85249996  156.64100647    4.90999985    2.86999989
   13.85583401  161.26600647    4.90999985    2.86999989
   13.85888958  159.99600220    4.90999985    2.86999989
   13.86222267  158.63600159    4.90999985    2.89000010
   13.86555576  175.38699341    4.90999985    2.89000010
   13.86861134  169.80599976    4.90999985    2.86999989
   13.87194443  157.92700195    4.90999985    2.86999989
   13.87527752  167.24800110    4.90999985    2.86999989
   13.87833309  163.48699951    4.90999985    2.86999989
   13.88083363  155.06100464    4.90999985    2.86999989
   13.88194466  174.75300598    4.90999985    2.86999989
   13.88527775  183.08999634    4.90999985    2.86999989
   13.89138889  183.08999634    4.90999985    2.86999989
   13.89527798  191.92199707    4.90999985    2.86999989
   13.89861107  159.17399597    4.90999985    2.86999989
   13.90194416  147.46699524    4.90999985    2.89000010
   13.90499973  159.95799255    4.90999985    2.86999989
   13.90833282  174.11799622    4.90999985    2.89000010
   13.91166592  179.56900024    4.90999985    2.89000010
   13.91416645  163.74200439    4.90999985    2.89000010
   13.91499996  158.47599792    4.90999985    2.89000010
   13.91833401  180.18200684    4.90999985    2.89000010
   13.92166710  204.63299561    4.90999985    2.89000010
   13.92472267  163.62500000    4.90999985    2.89000010
   13.92805576  163.08599854    4.90999985    2.89000010
   13.93416691  163.08599854    4.90999985    2.89000010
   13.93833351  192.61099243    4.90999985    2.89000010
   13.94138908  153.92599487    4.90999985    2.89000010
   13.94472218  169.88499451    4.90999985    2.89000010
   13.94750023  165.85499573    4.90999985    2.89000010
   13.94833374  169.40699768    4.90999985    2.89000010
   13.95166683  164.14100647    4.90999985    2.89000010
   13.95499992  149.67199707    4.90999985    2.89000010
   13.95805550  164.86099243    4.90999985    2.89000010
   13.96138859  168.82299805    4.90999985    2.89000010
   13.96472168  158.76199341    4.90999985    2.89000010
   13.96777725  173.07499695    4.90999985    2.89000010
   13.97111034  148.54899597    4.90999985    2.89000010
   13.97694397  148.54899597    4.90999985    2.89000010
   13.98111057  161.15699768    4.90999985    2.89000010
   13.98444462  170.02200317    4.90999985    2.89000010
   13.98750019  155.57699585    4.90999985    2.89000010
   13.99083328  148.67999268    4.90999985    2.89000010
   13.99388885  162.67399597    4.90999985    2.89000010
   13.99722290  160.06900024    4.90999985    2.91000009
   14.00055599  162.03300476    4.90999985    2.89000010
   14.00361156  158.52000427    4.90999985    2.89000010
   14.00694466  163.16000366    4.90999985    2.91000009
   14.01027775  166.10499573    4.90999985    2.89000010
   14.01333332  164.66700745    4.90999985    2.89000010
   14.01416683  161.62199402    4.90999985    2.91000009
   14.01972198  161.62199402    4.90999985    2.91000009
   14.02388859  164.98300171    4.90999985    2.89000010
   14.02722168  153.34599304    4.90999985    2.89000010
   14.03027725  163.56799316    4.90999985    2.89000010
   14.03361130  162.55999756    4.90999985    2.89000010
   14.03694534  168.08500671    4.90999985    2.91000009
   14.04027843  157.22000122    4.90999985    2.89000010
   14.04333401  164.69200134    4.90999985    2.89000010
   14.04666710  177.79299927    4.90999985    2.89000010
   14.04750061  157.67799377    4.90999985    2.89000010
   14.05027771  174.16200256    4.90999985    2.89000010
   14.05333328  166.41499329    4.90999985    2.91000009
   14.05666733  158.82099915    4.90999985    2.89000010
   14.06277752  158.82099915    4.90999985    2.89000010
   14.06666660  156.20300293    4.90999985    2.89000010
   14.06999969  160.66299438    4.90999985    2.91000009
   14.07333374  172.02099609    4.90999985    2.91000009
   14.07638836  157.53700256    4.90999985    2.91000009
   14.07972240  165.43200684    4.90999985    2.89000010
   14.08083344  166.57200623    4.90999985    2.91000009
   14.08333302  158.19900513    4.90999985    2.89000010
   14.08638859  160.02099609    4.90999985    2.91000009
   14.08972168  156.17100525    4.90999985    2.91000009
   14.09277725  159.22500610    4.90999985    2.91000009
   14.09611034  164.73800659    4.90999985    2.89000010
   14.09944439  150.60800171    4.90999985    2.91000009
   14.10555553  150.60800171    4.90999985    2.91000009
   14.10972214  158.28900146    4.90999985    2.91000009
   14.11277771  163.01600647    4.90999985    2.91000009
   14.11416721  164.14799500    4.90999985    2.91000009
   14.11666679  152.01899719    4.90999985    2.91000009
   14.11972237  167.76199341    4.90999985    2.89000010
   14.12305546  153.73399353    4.90999985    2.91000009
   14.12611103  155.05200195    4.90999985    2.91000009
   14.12944412  153.73100281    4.90999985    2.89000010
   14.13277817  158.26600647    4.90999985    2.91000009
   14.13583279  152.54100037    4.90999985    2.89000010
   14.13916683  153.77200317    4.90999985    2.91000009
   14.14249992  155.67900085    4.90999985    2.91000009
   14.14833355  155.67900085    4.90999985    2.91000009
   14.15249920  154.54800415    4.90999985    2.91000009
   14.15583324  155.86999512    4.90999985    2.91000009
   14.15888882  162.55000305    4.90999985    2.91000009
   14.16222191  162.34100342    4.90999985    2.91000009
   14.16555500  143.52799988    4.90999985    2.91000009
   14.16861153  159.86500549    4.90999985    2.91000009
   14.17194462  165.17300415    4.90999985    2.91000009
   14.17500019  155.55400085    4.90999985    2.91000009
   14.17833328  150.90600586    4.90999985    2.91000009
   14.18083382  154.07000732    4.90999985    2.91000009
   14.18222237  158.52099609    4.90999985    2.93000007
   14.18527794  149.08599854    4.90999985    2.91000009
   14.19111156  149.08599854    4.90999985    2.89000010
   14.19527817  154.59599304    4.90999985    2.91000009
   14.19861126  156.09899902    4.90999985    2.91000009
   14.20194435  159.48699951    4.90999985    2.91000009
   14.20499992  147.56599426    4.90999985    2.91000009
   14.20833302  158.95300293    4.90999985    2.91000009
   14.21138859  149.46800232    4.90999985    2.91000009
   14.21416664  147.18899536    4.90999985    2.93000007
   14.21527767  157.79200745    4.90999985    2.89000010
   14.21833324  151.18899536    4.90999985    2.91000009
   14.22166634  156.30900574    4.90999985    2.91000009
   14.22499943  158.46099854    4.90999985    2.91000009
   14.22805500  150.46099854    4.90999985    2.91000009
   14.23416710  150.46099854    4.90999985    2.91000009
   14.23833370  152.82499695    4.90999985    2.93000007
   14.24138927  142.63299561    4.90999985    2.91000009
   14.24472237  151.24000549    4.90999985    2.93000007
   14.24750042  149.68699646    4.90999985    2.93000007
   14.24833393  156.56900024    4.90999985    2.93000007
   14.25138855  153.75700378    4.90999985    2.91000009
   14.25472260  162.42300415    4.90999985    2.93000007
   14.25777817  156.27699280    4.90999985    2.91000009
   14.26111126  154.13800049    4.90999985    2.91000009
   14.26444435  151.21699524    4.90999985    2.93000007
   14.26749992  151.25500488    4.90999985    2.91000009
   14.27083302  153.32600403    4.90999985    2.93000007
   14.27694416  153.32600403    4.90999985    2.91000009
   14.28111076  157.12800598    4.90999985    2.93000007
   14.28416729  154.83099365    4.90999985    2.91000009
   14.28750038  167.52600098    4.90999985    2.91000009
   14.29083347  157.19400024    4.90999985    2.93000007
   14.29388905  146.58599854    4.90999985    2.93000007
   14.29722309  157.03999329    4.90999985    2.93000007
   14.30027771  158.62600708    4.90999985    2.93000007
   14.30361176  147.07000732    4.90999985    2.93000007
   14.30694485  157.65499878    4.90999985    2.91000009
   14.31000042  178.10099792    4.90999985    2.93000007
   14.31333351  151.64100647    4.90999985    2.93000007
   14.31416702  160.75900269    4.90999985    2.93000007
   14.31972218  160.75900269    4.90999985    2.93000007
   14.32388878  153.68600464    4.90999985    2.94000006
   14.32722187  146.21200562    4.90999985    2.93000007
   14.33027744  151.29800415    4.90999985    2.93000007
   14.34777737  152.30700684    4.90999985    2.93000007
   14.35027790  162.99299622    4.90999985    2.93000007
   14.35361195  158.19999695    4.90999985    2.93000007
   14.35666752  151.38099670    4.90999985    2.93000007
   14.36277771  151.38099670    4.90999985    2.93000007
   14.36694431  154.52000427    4.90999985    2.91000009
   14.37027836  150.30799866    4.90999985    2.91000009
   14.37333393  161.58999634    4.90999985    2.93000007
   14.37666702  154.78900146    4.90999985    2.91000009
   14.37972260  158.58299255    4.90999985    2.93000007
   14.38111115  154.82299805    4.90999985    2.91000009
   14.38361073  153.99699402    4.90999985    2.93000007
   14.38694477  153.64700317    4.90999985    2.93000007
   14.39000034  154.51899719    4.90999985    2.93000007
   14.39333344  158.08200073    4.90999985    2.93000007
   14.39638901  171.12300110    4.90999985    2.94000006
   14.39972210  166.96699524    4.90999985    2.93000007
   14.40555477  166.96699524    4.90999985    2.93000007
   14.40972137  152.45799255    4.90999985    2.93000007
   14.41305542  155.66700745    4.90999985    2.91000009
   14.41444397  145.69700623    4.90999985    2.94000006
   14.41666698  148.53700256    4.90999985    2.94000006
   14.41972256  169.22399902    4.90999985    2.94000006
   14.42305565  177.20399475    4.90999985    2.94000006
   14.42638874  165.91499329    4.90999985    2.93000007
   14.42944431  177.97399902    4.90999985    2.94000006
   14.43277836  152.57800293    4.90999985    2.93000007
   14.43583298  165.34800720    4.90999985    2.93000007
   14.43916702  172.22500610    4.90999985    2.93000007
   14.44250011  154.78599548    4.90999985    2.93000007
   14.44833374  154.78599548    4.90999985    2.93000007
   14.45249939  151.85800171    4.90999985    2.93000007
   14.45583344  155.65499878    4.90999985    2.93000007
   14.45916653  157.16299438    4.90999985    2.93000007
   14.46222210  155.57400513    4.90999985    2.93000007
   14.46555519  163.01600647    4.90999985    2.93000007
   14.46861076  160.28599548    4.90999985    2.94000006
   14.47194386  154.16499329    4.90999985    2.93000007
   14.47527695  158.57800293    4.90999985    2.93000007
   14.47833252  156.75900269    4.90999985    2.93000007
   14.48111057  158.22799683    4.90999985    2.93000007
   14.48222160  150.46000671    4.90999985    2.93000007
   14.48527813  149.76400757    4.90999985    2.93000007
   14.49138927  149.76400757    4.90999985    2.93000007
   14.49555588  159.46699524    4.90999985    2.93000007
   14.49861145  153.81700134    4.90999985    2.93000007
   14.50194454  154.53399658    4.90999985    2.94000006
   14.50527763  153.02900696    4.90999985    2.94000006
   14.50833321  161.54100037    4.90999985    2.94000006
   14.51166630  144.19999695    4.90999985    2.93000007
   14.51444435  152.56799316    4.90999985    2.93000007
   14.51527786  157.20300293    4.90999985    2.93000007
   14.51833344  157.66999817    4.90999985    2.94000006
   14.52166653  166.22599792    4.90999985    2.94000006
   14.52499962  158.37699890    4.90999985    2.94000006
   14.52805519  173.47700500    4.90999985    2.93000007
   14.53416729  173.47700500    4.90999985    2.93000007
   14.53833389  152.58700562    4.90999985    2.94000006
   14.54138947  158.24000549    4.90999985    2.94000006
   14.54472256  158.53300476    4.90999985    2.93000007
   14.54777813  150.99499512    4.90999985    2.96000004
   14.54833412  161.93400574    4.90999985    2.96000004
   14.55166721  161.55400085    4.90999985    2.93000007
   14.55472279  158.16200256    4.90999985    2.94000006
   14.55805588  149.15400696    4.90999985    2.94000006
   14.56138897  161.35499573    4.90999985    2.94000006
   14.56444454  154.75999451    4.90999985    2.94000006
   14.56777763  158.44999695    4.90999985    2.94000006
   14.57083321  157.04899597    4.90999985    2.94000006
   14.57694435  157.04899597    4.90999985    2.94000006
   14.58111095  158.34700012    4.90999985    2.94000006
   14.58166695  165.84700012    4.90999985    2.94000006
   14.58472157  155.27499390    4.90999985    2.94000006
   14.58805561  155.50999451    4.90999985    2.93000007
   14.59138870  153.69099426    4.90999985    2.94000006
   14.59444427  165.98399353    4.90999985    2.94000006
   14.59777737  157.03900146    4.90999985    2.94000006
   14.60111141  169.97399902    4.90999985    2.94000006
   14.60416698  179.95799255    4.90999985    2.94000006
   14.60750008  160.51100159    4.90999985    2.94000006
   14.61055565  168.10600281    4.90999985    2.94000006
   14.61388969  159.55599976    4.90999985    2.94000006
   14.61444473  161.09599304    4.90999985    2.94000006
   14.61999989  161.09599304    4.90999985    2.94000006
   14.62388897  168.53399658    4.90999985    2.94000006
   14.62722206  176.20799255    4.90999985    2.94000006
   14.63055611  153.45300293    4.90999985    2.94000006
   14.63361073  155.13200378    4.90999985    2.94000006
   14.63694477  169.18499756    4.90999985    2.96000004
   14.64027786  164.83000183    4.90999985    2.94000006
   14.64333344  157.81900024    4.90999985    2.94000006
   14.64666653  162.60899353    4.90999985    2.94000006
   14.64777756  159.27799988    4.90999985    2.94000006
   14.65027714  162.15499878    4.90999985    2.94000006
   14.65361118  158.12500000    4.90999985    2.94000006
   14.65666676  153.17999268    4.90999985    2.94000006
   14.66277695  153.17999268    4.90999985    2.94000006
   14.66694450  161.52699280    4.90999985    2.94000006
   14.67000008  146.73199463    4.90999985    2.94000006
   14.67333412  151.97399902    4.90999985    2.94000006
   14.67638874  149.40100098    4.90999985    2.94000006
   14.67972279  156.07499695    4.90999985    2.94000006
   14.68111134  148.21000671    4.90999985    2.94000006
   14.68333340  155.57800293    4.90999985    2.94000006
   14.68666649  162.45899963    4.90999985    2.94000006
   14.68972206  148.97399902    4.90999985    2.96000004
   14.69305515  157.63600159    4.90999985    2.94000006
   14.69611073  162.74200439    4.90999985    2.94000006
   14.69944477  156.97799683    4.90999985    2.94000006
   14.70555496  156.97799683    4.90999985    2.94000006
   14.70972157  158.30000305    4.90999985    2.94000006
   14.71277714  156.15400696    4.90999985    2.94000006
   14.71444416  168.39100647    4.90999985    2.94000006
   14.71666622  153.83099365    4.90999985    2.94000006
   14.71999931  152.49499512    4.90999985    2.94000006
   14.72305489  159.27000427    4.90999985    2.94000006
   14.72638798  159.42100525    4.90999985    2.94000006
   14.72944355  161.33900452    4.90999985    2.94000006
   14.73277760  154.16700745    4.90999985    2.94000006
   14.73611164  150.36300659    4.90999985    2.94000006
   14.73916721  147.24400330    4.90999985    2.94000006
   14.74250031  164.78500366    4.90999985    2.94000006
   14.74833393  164.78500366    4.90999985    2.94000006
   14.75249958  148.98399353    4.90999985    2.94000006
   14.75583363  163.78300476    4.90999985    2.94000006
   14.75888920  169.70899963    4.90999985    2.94000006
   14.76222229  154.27200317    4.90999985    2.96000004
   14.76555538  158.65499878    4.90999985    2.94000006
   14.76861095  154.94999695    4.90999985    2.96000004
   14.77194405  154.63900757    4.90999985    2.96000004
   14.77499962  154.99400330    4.90999985    2.96000004
   14.77833271  162.60899353    4.90999985    2.94000006
   14.78111076  152.38499451    4.90999985    2.94000006
   14.78194427  149.33500671    4.90999985    2.94000006
   14.78527832  160.70700073    4.90999985    2.94000006
   14.79111195  160.70700073    4.90999985    2.94000006
   14.79527855  158.92199707    4.90999985    2.94000006
   14.79861164  154.41099548    4.90999985    2.94000006
   14.80194473  155.70700073    4.90999985    2.94000006
   14.80500031  159.96499634    4.90999985    2.96000004
   14.80833340  152.60400391    4.90999985    2.94000006
   14.81138897  151.19099426    4.90999985    2.94000006
   14.81444454  149.77699280    4.90999985    2.94000006
   14.81527805  157.80999756    4.90999985    2.94000006
   14.81861115  153.02400208    4.90999985    2.94000006
   14.82166672  156.40299988    4.90999985    2.96000004
   14.82499981  155.49800110    4.90999985    2.98000002
   14.82805538  155.99899292    4.90999985    2.96000004
   14.83416653  155.99899292    4.90999985    2.94000006
   14.83833313  158.84199524    4.90999985    2.94000006
   14.84138870  158.52499390    4.90999985    2.96000004
   14.84472179  153.47900391    4.90999985    2.96000004
   14.84777737  159.30299377    4.90999985    2.96000004
   14.84833336  147.28999329    4.90999985    2.96000004
   14.85166740  147.38099670    4.90999985    2.94000006
   14.85472298  154.56500244    4.90999985    2.96000004
   14.85805607  155.30499268    4.90999985    2.94000006
   14.86111164  155.33599854    4.90999985    2.96000004
   14.86444473  152.72099304    4.90999985    2.96000004
   14.86777782  159.28599548    4.90999985    2.96000004
   14.87083340  161.14100647    4.90999985    2.94000006
   14.87694454  161.14100647    4.90999985    2.96000004
   14.88111115  149.80200195    4.90999985    2.96000004
   14.88166714  156.77900696    4.90999985    2.94000006
   14.88500023  163.79499817    4.90999985    2.94000006
   14.88805580  162.05999756    4.90999985    2.96000004
   14.89138889  159.52299500    4.90999985    2.94000006
   14.89444447  151.63600159    4.90999985    2.94000006
   14.89777756  150.59100342    4.90999985    2.96000004
   14.90111065  151.74800110    4.90999985    2.94000006
   14.90416622  150.94700623    4.90999985    2.96000004
   14.90749931  157.37500000    4.90999985    2.94000006
   14.91083336  152.15699768    4.90999985    2.94000006
   14.91388893  161.21600342    4.90999985    2.96000004
   14.91499996  161.80200195    4.90999985    2.96000004
   14.91972256  161.80200195    4.90999985    2.94000006
   14.92388916  162.25100708    4.90999985    2.96000004
   14.92722225  160.05200195    4.90999985    2.96000004
   14.93027782  156.38499451    4.90999985    2.96000004
   14.93361092  163.39300537    4.90999985    2.96000004
   14.93694496  152.50900269    4.90999985    2.96000004
   14.94000053  152.06500244    4.90999985    2.96000004
   14.94333363  164.45799255    4.90999985    2.96000004
   14.94638920  155.67799377    4.90999985    2.96000004
   14.94833374  163.76100159    4.90999985    2.94000006
   14.94999981  165.60699463    4.90999985    2.96000004
   14.95333290  142.94999695    4.90999985    2.96000004
   14.95666695  159.58200073    4.90999985    2.94000006
   14.96249962  159.58200073    4.90999985    2.96000004
   14.96666622  164.33700562    4.90999985    2.96000004
   14.96999931  160.42799377    4.90999985    2.96000004
   14.97333336  159.49400330    4.90999985    2.96000004
   14.97638798  160.60000610    4.90999985    2.96000004
   14.97972202  159.01899719    4.90999985    2.94000006
   14.98166656  165.89199829    4.90999985    2.96000004
   14.98305511  152.80599976    4.90999985    2.94000006
   14.98638916  164.97200012    4.90999985    2.96000004
   14.98972225  158.64799500    4.90999985    2.96000004
   14.99277782  158.44700623    4.90999985    2.96000004
   14.99611092  158.18699646    4.90999985    2.98000002
   14.99944496  155.65699768    4.90999985    2.96000004
   15.00555515  155.65699768    4.90999985    2.96000004
   15.00972176  155.62100220    4.90999985    2.96000004
   15.01277733  150.68499756    4.90999985    2.96000004
   15.01500034  158.44599915    4.90999985    2.96000004
   15.01666641  160.31799316    4.90999985    2.96000004
   15.01972198  154.58200073    4.90999985    2.96000004
   15.02305508  162.77999878    4.90999985    2.96000004
   15.02611065  156.15699768    4.90999985    2.98000002
   15.02944374  149.26199341    4.90999985    2.96000004
   15.03277779  169.51800537    4.90999985    2.96000004
   15.03583336  171.17700195    4.90999985    2.96000004
   15.03916740  166.22000122    4.90999985    2.96000004
   15.04250050  163.43400574    4.90999985    2.96000004
   15.04833412  163.43400574    4.90999985    2.96000004
   15.05249977  157.66299438    4.90999985    2.98000002
   15.05555534  153.86500549    4.90999985    2.98000002
   15.05888939  154.61099243    4.90999985    2.96000004
   15.06222248  157.23800659    4.90999985    2.96000004
   15.06527805  154.64900208    4.90999985    2.98000002
   15.06861115  154.42199707    4.90999985    2.96000004
   15.07166672  159.77999878    4.90999985    2.96000004
   15.07499981  159.17799377    4.90999985    2.96000004
   15.07833290  160.55200195    4.90999985    2.98000002
   15.08138847  170.00900269    4.90999985    2.98000002
   15.08333302  178.23100281    4.90999985    2.96000004
   15.08527756  152.57699585    4.90999985    2.96000004
   15.09111118  152.57699585    4.90999985    2.98000002
   15.09527779  170.67300415    4.90999985    2.98000002
   15.09861088  151.34300232    4.90999985    2.96000004
   15.10166740  165.83999634    4.90999985    2.94000006
   15.10500050  148.50100708    4.90999985    2.98000002
   15.10833359  166.16200256    4.90999985    2.96000004
   15.11138916  160.18299866    4.90999985    2.98000002
   15.11472225  168.10499573    4.90999985    2.96000004
   15.11666679  155.99699402    4.90999985    2.96000004
   15.11833382  153.34500122    4.90999985    2.96000004
   15.12138939  188.40499878    4.90999985    2.96000004
   15.12472248  161.48500061    4.90999985    2.98000002
   15.12805557  151.99899292    4.90999985    2.98000002
   15.13388920  151.99899292    4.90999985    2.96000004
   15.13805580  183.83599854    4.90999985    2.96000004
   15.14138889  170.31599426    4.90999985    2.98000002
   15.14444447  187.04899597    4.90999985    2.98000002
   15.14777756  166.78300476    4.90999985    2.98000002
   15.15027714  165.34300232    4.90999985    2.98000002
   15.15138817  168.31100464    4.90999985    2.98000002
   15.15472221  165.32099915    4.90999985    2.96000004
   15.15805531  159.00700378    4.90999985    2.96000004
   15.16111088  175.05099487    4.90999985    2.96000004
   15.16444397  170.75900269    4.90999985    2.94000006
   15.16777802  164.12600708    4.90999985    2.98000002
   15.17083359  163.33299255    4.90999985    2.96000004
   15.17694473  163.33299255    4.90999985    2.98000002
   15.18111134  163.27600098    4.90999985    2.96000004
   15.18361092  164.25900269    4.90999985    2.96000004
   15.18444443  173.80700684    4.90999985    2.98000002
   15.18777752  167.29299927    4.90999985    2.96000004
   15.19111156  169.50999451    4.90999985    2.96000004
   15.19416714  166.30400085    4.90999985    2.96000004
   15.19750023  165.98899841    4.90999985    2.98000002
   15.20083332  162.57800293    4.90999985    2.98000002
   15.20388889  175.84700012    4.90999985    2.98000002
   15.20722198  155.22599792    4.90999985    2.98000002
   15.21027756  162.79499817    4.90999985    2.98000002
   15.21361065  166.09899902    4.90999985    2.96000004
   15.21972179  166.09899902    4.90999985    2.98000002
   15.22388840  174.32299805    4.90999985    2.96000004
   15.22694397  172.78700256    4.90999985    2.98000002
   15.23027706  163.10200500    4.90999985    2.96000004
   15.23361111  161.72900391    4.90999985    2.96000004
   15.23666668  162.23300171    4.90999985    2.96000004
   15.24000072  167.77000427    4.90999985    2.98000002
   15.24333382  157.18400574    4.90999985    2.98000002
   15.24638939  177.06199646    4.90999985    2.98000002
   15.24972248  160.38099670    4.90999985    2.98000002
   15.25055599  166.82899475    4.90999985    3.00000000
   15.25333309  171.95899963    4.90999985    2.98000002
   15.25638866  166.65299988    4.90999985    2.96000004
   15.26249981  166.65299988    4.90999985    2.96000004
   15.26666641  147.07000732    4.90999985    2.98000002
   15.26999950  161.86599731    4.90999985    2.98000002
   15.27305508  164.22999573    4.90999985    2.98000002
   15.27638817  159.27499390    4.90999985    3.00000000
   15.27944374  170.28500366    4.90999985    2.96000004
   15.28277779  155.62899780    4.90999985    3.00000000
   15.28388977  170.00599670    4.90999985    2.98000002
   15.28638935  164.16099548    4.90999985    2.98000002
   15.28944492  171.28399658    4.90999985    2.98000002
   15.29277802  168.08200073    4.90999985    2.96000004
   15.29611111  158.66000366    4.90999985    2.96000004
   15.29916668  162.98300171    4.90999985    2.98000002
   15.30527782  162.98300171    4.90999985    2.98000002
   15.30944443  159.96800232    4.90999985    2.98000002
   15.31277752  161.08999634    4.90999985    2.96000004
   15.31583309  168.84399414    4.90999985    2.98000002
   15.31750011  155.18299866    4.90999985    2.96000004
   15.31972218  152.91999817    4.90999985    2.98000002
   15.32277775  163.46600342    4.90999985    2.96000004
   15.32611084  162.16900635    4.90999985    2.96000004
   15.32916641  171.27699280    4.90999985    2.98000002
   15.33249950  169.35800171    4.90999985    2.96000004
   15.33583260  183.25100708    4.90999985    2.96000004
   15.33888817  174.45100403    4.90999985    2.98000002
   15.34222221  170.02099609    4.90999985    2.96000004
   15.34833336  170.02099609    4.90999985    2.96000004
   15.36666679  167.57499695    4.90999985    2.98000002
   15.36999989  150.90499878    4.90999985    2.96000004
   15.37305546  161.47999573    4.90999985    2.96000004
   15.37638855  171.96400452    4.90999985    2.98000002
   15.37944412  155.19200134    4.90999985    2.96000004
   15.38277817  163.74400330    4.90999985    2.98000002
   15.38611126  163.31900024    4.90999985    2.98000002
   15.39138889  163.31900024    4.90999985    2.98000002
   15.39555550  156.98899841    4.90999985    3.00000000
   15.39861107  138.10299683    4.90999985    2.98000002
   15.39972210  156.09300232    4.90999985    2.98000002
   15.40249920  153.60099792    4.90999985    2.98000002
   15.40555477  149.47500610    4.90999985    2.98000002
   15.40888882  165.44200134    4.90999985    2.98000002
   15.41194439  158.04200745    4.90999985    2.98000002
   15.41527748  167.56300354    4.90999985    2.98000002
   15.41861153  164.29100037    4.90999985    2.98000002
   15.42166710  162.55400085    4.90999985    2.98000002
   15.42500019  169.06100464    4.90999985    2.98000002
   15.42833328  166.24200439    4.90999985    2.98000002
   15.43416691  166.24200439    4.90999985    2.98000002
   15.43833351  168.64100647    4.90999985    2.98000002
   15.44166660  166.69900513    4.90999985    2.98000002
   15.44472218  171.22200012    4.90999985    2.98000002
   15.44805527  174.94400024    4.90999985    2.98000002
   15.45111084  162.22599792    4.90999985    2.98000002
   15.45444393  163.68699646    4.90999985    2.98000002
   15.45777798  153.87500000    4.90999985    2.98000002
   15.46083355  160.04499817    4.90999985    2.96000004
   15.46416664  158.97999573    4.90999985    3.00000000
   15.46638870  172.88800049    4.90999985    2.98000002
   15.46805477  153.62399292    4.90999985    2.98000002
   15.47111034  166.22000122    4.90999985    3.00000000
   15.47694397  166.22000122    4.90999985    2.98000002
   15.48111057  162.32400513    4.90999985    2.98000002
   15.48444462  158.12500000    4.90999985    2.98000002
   15.48750019  158.77699280    4.90999985    2.98000002
   15.49083328  162.00900269    4.90999985    2.98000002
   15.49416733  160.29100037    4.90999985    2.98000002
   15.49722290  162.20500183    4.90999985    2.98000002
   15.49972248  160.31700134    4.90999985    2.98000002
   15.50111103  163.60699463    4.90999985    2.98000002
   15.50416660  170.83299255    4.90999985    2.98000002
   15.50749969  157.43200684    4.90999985    2.98000002
   15.51055527  159.76199341    4.90999985    2.96000004
   15.51388931  145.96200562    4.90999985    2.98000002
   15.51999950  145.96200562    4.90999985    2.98000002
   15.52388859  160.60499573    4.90999985    2.98000002
   15.52722168  162.15699768    4.90999985    3.00000000
   15.53055573  158.60899353    4.90999985    2.98000002
   15.53305531  162.38400269    4.90999985    2.98000002
   15.53416729  161.86599731    4.90999985    3.00000000
   15.53722286  165.47799683    4.90999985    2.98000002
   15.54055595  159.13999939    4.90999985    3.00000000
   15.54361153  158.58999634    4.90999985    3.00000000
   15.54694462  156.62600708    4.90999985    2.98000002
   15.55027771  154.52699280    4.90999985    2.98000002
   15.55333328  153.74499512    4.90999985    2.98000002
   15.55666733  152.91499329    4.90999985    2.98000002
   15.56277752  152.91499329    4.90999985    2.98000002
   15.56694412  155.63000488    4.90999985    2.98000002
   15.56999969  158.72000122    4.90999985    2.98000002
   15.57333374  153.89399719    4.90999985    2.98000002
   15.57638836  154.12800598    4.90999985    2.98000002
   15.57972240  156.27999878    4.90999985    2.98000002
   15.58305550  154.40600586    4.90999985    2.98000002
   15.58611107  153.95199585    4.90999985    2.96000004
   15.58944416  153.38999939    4.90999985    2.98000002
   15.59277725  152.81799316    4.90999985    2.98000002
   15.59583282  151.90800476    4.90999985    2.96000004
   15.59916592  155.64999390    4.90999985    2.98000002
   15.59972191  144.06700134    4.90999985    2.98000002
   15.60555553  144.06700134    4.90999985    2.96000004
   15.60972214  151.10800171    4.90999985    2.98000002
   15.61305618  145.72200012    4.90999985    2.98000002
   15.61611176  145.30400085    4.90999985    2.98000002
   15.61944485  155.11199951    4.90999985    2.98000002
   15.62250042  154.89199829    4.90999985    3.00000000
   15.62583351  159.38400269    4.90999985    2.98000002
   15.62916660  159.48599243    4.90999985    2.98000002
   15.63222218  149.13999939    4.90999985    2.98000002
   15.63305569  146.00399780    4.90999985    2.98000002
   15.63611126  147.73699951    4.90999985    2.96000004
   15.63916683  155.33200073    4.90999985    2.98000002
   15.64249992  150.76899719    4.90999985    2.98000002
   15.64833355  150.76899719    4.90999985    3.00000000
   15.65249920  153.29299927    4.90999985    2.98000002
   15.65583324  152.65800476    4.90999985    2.98000002
   15.65888882  148.23500061    4.90999985    2.98000002
   15.66222191  159.42300415    4.90999985    2.98000002
   15.66555500  146.10499573    4.90999985    2.98000002
   15.66638851  148.45799255    4.90999985    2.98000002
   15.66916656  146.81300354    4.90999985    3.00000000
   15.67222214  150.40199280    4.90999985    2.98000002
   15.67555618  150.41600037    4.90999985    2.98000002
   15.67861176  152.89100647    4.90999985    2.98000002
   15.68194485  150.72399902    4.90999985    2.98000002
   15.68527794  144.82899475    4.90999985    3.00000000
   15.69138908  144.82899475    4.90999985    3.00000000
   15.69527817  146.54299927    4.90999985    2.98000002
   15.69861126  140.98500061    4.90999985    2.98000002
   15.69972229  148.99000549    4.90999985    2.98000002
   15.70222187  155.15600586    4.90999985    2.98000002
   15.70527744  149.15699768    4.90999985    3.00000000
   15.70861053  149.38999939    4.90999985    2.98000002
   15.71194458  145.58399963    4.90999985    2.98000002
   15.71500015  150.31399536    4.90999985    2.98000002
   15.71833324  151.92300415    4.90999985    2.98000002
   15.72138882  144.48399353    4.90999985    2.98000002
   15.72472191  157.67599487    4.90999985    3.00000000
   15.72805500  158.42599487    4.90999985    2.98000002
   15.73416710  158.42599487    4.90999985    2.98000002
   15.73833370  161.02000427    4.90999985    3.00000000
   15.74138927  145.15800476    4.90999985    2.98000002
   15.74472237  146.37500000    4.90999985    3.00000000
   15.74777794  152.50399780    4.90999985    2.96000004
   15.75111103  154.21000671    4.90999985    3.00000000
   15.75444412  143.60200500    4.90999985    2.98000002
   15.75749969  153.08900452    4.90999985    2.98000002
   15.76083374  148.66900635    4.90999985    3.00000000
   15.76416683  157.13200378    4.90999985    3.00000000
   15.76638889  153.92300415    4.90999985    3.00000000
   15.76777744  153.24800110    4.90999985    2.98000002
   15.77083302  149.71800232    4.90999985    2.96000004
   15.77694416  149.71800232    4.90999985    2.98000002
   15.78111076  147.71699524    4.90999985    2.98000002
   15.78416729  148.92100525    4.90999985    2.98000002
   15.78750038  152.91499329    4.90999985    3.00000000
   15.79083347  146.30499268    4.90999985    3.00000000
   15.79388905  139.25900269    4.90999985    3.00000000
   15.79722309  150.67599487    4.90999985    3.00000000
   15.79972267  145.44400024    4.90999985    2.96000004
   15.80083370  142.80900574    4.90999985    2.98000002
   15.80388927  154.20700073    4.90999985    2.98000002
   15.80722237  146.14599609    4.90999985    3.00000000
   15.81055546  152.31700134    4.90999985    2.98000002
   15.81361103  145.28999329    4.90999985    3.00000000
   15.81972218  145.28999329    4.90999985    2.98000002
   15.82388878  153.85400391    4.90999985    2.98000002
   15.82722187  153.41799927    4.90999985    2.98000002
   15.83027744  141.97200012    4.90999985    3.00000000
   15.83305550  150.29800415    4.90999985    2.98000002
   15.83416653  156.48800659    4.90999985    2.98000002
   15.83722210  148.11799622    4.90999985    3.00000000
   15.84055519  151.36199951    4.90999985    3.00000000
   15.84388828  148.95399475    4.90999985    2.98000002
   15.84694386  149.41200256    4.90999985    2.98000002
   15.85027790  146.00999451    4.90999985    2.98000002
   15.85333347  149.44099426    4.90999985    2.98000002
   15.85666752  145.75999451    4.90999985    3.00000000
   15.86277771  145.75999451    4.90999985    2.98000002
   15.86666679  151.76699829    4.90999985    3.00000000
   15.86999989  159.17100525    4.90999985    3.00000000
   15.87333393  152.44200134    4.90999985    2.98000002
   15.87638855  145.02400208    4.90999985    2.98000002
   15.87972260  137.02900696    4.90999985    2.98000002
   15.88277817  147.64500427    4.90999985    2.98000002
   15.88611126  139.78399658    4.90999985    2.98000002
   15.88944435  143.16400146    4.90999985    2.98000002
   15.89249992  155.67599487    4.90999985    3.00000000
   15.89583302  149.57899475    4.90999985    2.98000002
   15.89916611  152.57800293    4.90999985    3.00000000
   15.89972210  150.88000488    4.90999985    3.00000000
   15.90555477  150.88000488    4.90999985    2.98000002
   15.90972137  149.27000427    4.90999985    2.96000004
   15.91277695  153.03399658    4.90999985    3.00000000
   15.91611099  153.29100037    4.90999985    2.98000002
   15.91916656  151.02400208    4.90999985    2.98000002
   15.92250061  147.99099731    4.90999985    2.98000002
   15.92583370  151.62500000    4.90999985    2.98000002
   15.92916679  152.01699829    4.90999985    3.00000000
   15.93222237  156.75300598    4.90999985    2.98000002
   15.93305588  142.68200684    4.90999985    2.98000002
   15.93611145  148.43299866    4.90999985    3.00000000
   15.93916702  145.18499756    4.90999985    3.00000000
   15.94250011  151.99099731    4.90999985    2.98000002
   15.94833374  151.99099731    4.90999985    2.98000002
   15.95249939  147.41299438    4.90999985    2.98000002
   15.95555496  147.97999573    4.90999985    2.98000002
   15.95888901  147.67799377    4.90999985    2.98000002
   15.96222210  146.46200562    4.90999985    2.98000002
   15.96527767  156.57699585    4.90999985    3.00000000
   15.96638870  152.14599609    4.90999985    2.98000002
   15.96916580  147.32200623    4.90999985    3.00000000
   15.97222137  143.56300354    4.90999985    2.98000002
   15.97555542  151.89199829    4.90999985    2.98000002
   15.97888851  148.37100220    4.90999985    2.98000002
   15.98194408  162.51400757    4.90999985    3.00000000
   15.98527813  156.11799622    4.90999985    2.98000002
   15.99111176  156.11799622    4.90999985    2.98000002
   15.99527836  155.14900208    4.90999985    3.00000000
   15.99861145  150.62199402    4.90999985    2.98000002
   15.99972248  146.02999878    4.90999985    3.01999998
   16.00222206  157.43899536    4.90999985    2.98000002
   16.00555611  149.48699951    4.90999985    3.00000000
   16.00861168  150.10699463    4.90999985    3.00000000
   16.01194382  151.26199341    4.90999985    3.00000000
   16.01499939  149.50599670    4.90999985    3.00000000
   16.01833344  148.09199524    4.90999985    2.98000002
   16.02166557  142.24899292    4.90999985    3.00000000
   16.02472115  141.16099548    4.90999985    3.00000000
   16.02805519  153.86000061    4.90999985    2.98000002
   16.03388786  153.86000061    4.90999985    3.00000000
   16.03805542  151.36599731    4.90999985    3.00000000
   16.04138756  158.27600098    4.90999985    2.98000002
   16.04472160  146.41600037    4.90999985    3.01999998
   16.04777718  149.36999512    4.90999985    3.00000000
   16.05111122  161.52699280    4.90999985    2.98000002
   16.05416679  147.39599609    4.90999985    3.00000000
   16.05749893  141.16799927    4.90999985    3.01999998
   16.06083298  157.41799927    4.90999985    3.00000000
   16.06388855  163.15400696    4.90999985    3.01999998
   16.06638718  151.32899475    4.90999985    3.00000000
   16.06777954  136.31399536    4.90999985    3.01999998
   16.07083511  144.14799500    4.90999985    3.00000000
   16.07694626  144.14799500    4.90999985    3.00000000
   16.08111191  151.19200134    4.90999985    3.00000000
   16.08416748  138.67500305    4.90999985    2.98000002
   16.08750153  153.99600220    4.90999985    3.00000000
   16.09055710  149.97799683    4.90999985    3.00000000
   16.09388924  150.01800537    4.90999985    3.00000000
   16.09722328  144.58000183    4.90999985    3.00000000
   16.09972191  149.05700684    4.90999985    3.00000000
   16.10083389  144.28999329    4.90999985    3.00000000
   16.10388947  160.05099487    4.90999985    3.00000000
   16.10722351  153.97500610    4.90999985    3.00000000
   16.11055565  146.72599792    4.90999985    3.00000000
   16.11361122  150.85800171    4.90999985    2.98000002
   16.11972237  150.85800171    4.90999985    3.00000000
   16.12388992  154.16600037    4.90999985    3.00000000
   16.12694550  143.64900208    4.90999985    2.98000002
   16.13027763  155.93400574    4.90999985    3.00000000
   16.13305473  154.53999329    4.90999985    2.98000002
   16.13388824  152.30499268    4.90999985    2.98000002
   16.13694382  145.69799805    4.90999985    3.00000000
   16.14027786  144.01499939    4.90999985    3.00000000
   16.14361191  149.28300476    4.90999985    3.00000000
   16.14666748  151.56300354    4.90999985    3.01999998
   16.14999962  148.11099243    4.90999985    3.00000000
   16.15333366  168.35000610    4.90999985    2.98000002
   16.15638924  156.59599304    4.90999985    3.00000000
   16.16250038  156.59599304    4.90999985    3.00000000
   16.16666603  144.80499268    4.90999985    3.00000000
   16.17000008  158.91299438    4.90999985    3.01999998
   16.17305565  136.82699585    4.90999985    3.00000000
   16.17638779  158.00999451    4.90999985    3.00000000
   16.17972183  168.11999512    4.90999985    3.00000000
   16.18277740  142.86500549    4.90999985    3.01999998
   16.18610954  171.26600647    4.90999985    3.00000000
   16.18916512  165.44099426    4.90999985    3.00000000
   16.19249916  152.01100159    4.90999985    3.00000000
   16.19583321  146.91299438    4.90999985    3.00000000
   16.19888878  152.63299561    4.90999985    3.00000000
   16.19972038  148.01699829    4.90999985    3.00000000
   16.20527840  148.01699829    4.90999985    3.00000000
   16.20944595  153.44599915    4.90999985    3.01999998
   16.21277809  153.19999695    4.90999985    3.00000000
   16.21611214  139.43800354    4.90999985    3.01999998
   16.21916771  156.33900452    4.90999985    3.00000000
   16.22249985  151.75199890    4.90999985    3.00000000
   16.22555542  145.88699341    4.90999985    3.00000000
   16.22888947  158.16700745    4.90999985    3.00000000
   16.23222351  146.66299438    4.90999985    3.00000000
   16.23305511  147.96200562    4.90999985    3.00000000
   16.23583412  161.07099915    4.90999985    3.00000000
   16.23888969  142.57699585    4.90999985    2.98000002
   16.24222183  148.50599670    4.90999985    3.00000000
   16.24833298  148.50599670    4.90999985    3.01999998
   16.25250053  142.57600403    4.90999985    3.00000000
   16.25555611  145.93400574    4.90999985    3.00000000
   16.25888824  151.50399780    4.90999985    3.00000000
   16.26222229  143.62300110    4.90999985    3.00000000
   16.26527786  147.19999695    4.90999985    3.00000000
   16.26638794  147.39500427    4.90999985    3.01999998
   16.26888847  143.43499756    4.90999985    3.01999998
   16.27222252  138.72799683    4.90999985    3.01999998
   16.27527809  139.26100159    4.90999985    3.00000000
   16.27861023  144.72399902    4.90999985    3.00000000
   16.28166580  140.26800537    4.90999985    3.01999998
   16.28499985  156.25300598    4.90999985    3.00000000
   16.29111099  156.25300598    4.90999985    3.00000000
   16.29527664  148.94400024    4.90999985    3.01999998
   16.29833221  160.79600525    4.90999985    3.00000000
   16.29972076  162.02000427    4.90999985    3.01999998
   16.30222130  157.50900269    4.90999985    3.00000000
   16.30555534  156.28100586    4.90999985    3.00000000
   16.30861092  147.71299744    4.90999985    3.00000000
   16.31194305  147.49600220    4.90999985    3.01999998
   16.31499863  150.02499390    4.90999985    3.01999998
   16.31833458  150.41799927    4.90999985    3.01999998
   16.32166672  170.38999939    4.90999985    3.01999998
   16.32472229  147.29200745    4.90999985    3.01999998
   16.32805634  147.06300354    4.90999985    3.01999998
   16.33388901  147.06300354    4.90999985    3.01999998
   16.33805656  149.10000610    4.90999985    3.01999998
   16.34138870  145.68400574    4.90999985    3.01999998
   16.34444427  152.55400085    4.90999985    3.00000000
   16.34777832  151.47700500    4.90999985    3.01999998
   16.35083389  167.85899353    4.90999985    3.00000000
   16.35416794  167.44900513    4.90999985    3.00000000
   16.35750008  165.75700378    4.90999985    3.00000000
   16.36055565  159.75700378    4.90999985    3.00000000
   16.36388969  154.41000366    4.90999985    3.00000000
   16.36638832  146.31300354    4.90999985    3.01999998
   16.38722229  146.31300354    4.90999985    3.00000000
   16.39111137  164.38800049    4.90999985    3.00000000
   16.39444351  164.22099304    4.90999985    3.00000000
   16.39777756  152.08700562    4.90999985    3.00000000
   16.39972115  163.68699646    4.90999985    3.00000000
   16.40138817  158.48500061    4.90999985    3.01999998
   16.40472221  171.52000427    4.90999985    3.00000000
   16.40777779  155.67599487    4.90999985    3.00000000
   16.41110992  157.03700256    4.90999985    3.00000000
   16.41416550  149.67399597    4.90999985    3.01999998
   16.41749954  146.45599365    4.90999985    3.00000000
   16.42083359  155.49899292    4.90999985    3.00000000
   16.42388916  153.12199402    4.90999985    3.01999998
   16.43000031  153.12199402    4.90999985    3.01999998
   16.43388748  149.16299438    4.90999985    3.01999998
   16.43722153  170.37899780    4.90999985    3.01999998
   16.44055557  148.76400757    4.90999985    3.01999998
   16.44361115  153.84199524    4.90999985    3.01999998
   16.44694328  153.63999939    4.90999985    3.01999998
   16.45000076  155.57600403    4.90999985    3.00000000
   16.45333481  170.99200439    4.90999985    3.01999998
   16.45666695  152.37699890    4.90999985    3.01999998
   16.45972252  146.20399475    4.90999985    3.01999998
   16.46305656  165.29400635    4.90999985    3.00000000
   16.46638870  147.86099243    4.90999985    3.00000000
   16.46694565  159.16600037    4.90999985    3.00000000
   16.47277832  159.16600037    4.90999985    3.00000000
   16.47694588  151.37300110    4.90999985    3.00000000
   16.48000145  155.14399719    4.90999985    3.00000000
   16.48333359  154.21699524    4.90999985    3.00000000
   16.48638916  155.56799316    4.90999985    3.01999998
   16.48972321  163.11300659    4.90999985    3.01999998
   16.49305534  146.93400574    4.90999985    3.00000000
   16.49611092  147.75599670    4.90999985    3.00000000
   16.49944496  145.21400452    4.90999985    3.00000000
   16.50027847  147.39999390    4.90999985    3.00000000
   16.50305557  159.90400696    4.90999985    3.00000000
   16.50638962  155.50399780    4.90999985    3.01999998
   16.50944519  150.48800659    4.90999985    3.01999998
   16.51555634  150.48800659    4.90999985    3.01999998
   16.51972198  145.64999390    4.90999985    3.01999998
   16.52277756  155.77299500    4.90999985    3.00000000
   16.52611160  149.68400574    4.90999985    3.01999998
   16.52944374  161.74499512    4.90999985    3.00000000
   16.53249931  149.99000549    4.90999985    3.00000000
   16.53361130  161.87600708    4.90999985    3.00000000
   16.53610992  156.74800110    4.90999985    3.00000000
   16.53944397  148.74499512    4.90999985    3.01999998
   16.54249954  169.08799744    4.90999985    3.01999998
   16.54583359  156.90499878    4.90999985    3.00000000
   16.54916573  144.93299866    4.90999985    3.00000000
   16.55222130  148.20399475    4.90999985    3.01999998
   16.55833244  148.20399475    4.90999985    3.00000000
   16.56250000  144.68699646    4.90999985    3.00000000
   16.56583214  160.68800354    4.90999985    3.00000000
   16.56694603  153.25399780    4.90999985    3.00000000
   16.56944466  150.64700317    4.90999985    3.01999998
   16.57277870  156.43200684    4.90999985    3.00000000
   16.57583427  160.64199829    4.90999985    3.00000000
   16.57916832  144.58900452    4.90999985    3.01999998
   16.58250046  147.96899414    4.90999985    3.00000000
   16.58555603  161.46899414    4.90999985    3.01999998
   16.58889008  162.25700378    4.90999985    3.01999998
   16.59222221  160.26199341    4.90999985    3.00000000
   16.59527779  154.09399414    4.90999985    3.01999998
   16.60111237  154.09399414    4.90999985    3.01999998
   16.60527802  156.83799744    4.90999985    3.00000000
   16.60861206  140.31900024    4.90999985    3.00000000
   16.61194420  161.58000183    4.90999985    3.01999998
   16.61499977  160.36099243    4.90999985    3.01999998
   16.61833382  151.42500305    4.90999985    3.01999998
   16.62138939  151.90699768    4.90999985    3.01999998
   16.62472153  155.04400635    4.90999985    3.00000000
   16.62805557  148.92900085    4.90999985    3.00000000
   16.63111115  156.73199463    4.90999985    3.01999998
   16.63361168  149.27699280    4.90999985    3.00000000
   16.63472176  150.70899963    4.90999985    3.00000000
   16.63805580  151.54800415    4.90999985    3.00000000
   16.64416695  151.54800415    4.90999985    3.00000000
   16.64833260  149.07899475    4.90999985    3.01999998
   16.65138817  150.28900146    4.90999985    3.01999998
   16.65472221  155.38600159    4.90999985    3.01999998
   16.65777779  150.64399719    4.90999985    3.01999998
   16.66110992  146.04299927    4.90999985    3.00000000
   16.66444397  165.64300537    4.90999985    3.00000000
   16.66694450  152.53599548    4.90999985    3.01999998
   16.66805458  150.13299561    4.90999985    3.00000000
   16.67138863  154.77900696    4.90999985    3.00000000
   16.67472076  156.95700073    4.90999985    3.00000000
   16.67777634  157.56700134    4.90999985    3.00000000
   16.68111038  150.82800293    4.90999985    3.01999998
   16.68694305  150.82800293    4.90999985    3.01999998
   16.69111061  146.16499329    4.90999985    3.01999998
   16.69416618  156.61000061    4.90999985    3.01999998
   16.69749832  156.48199463    4.90999985    3.01999998
   16.70027924  144.58799744    4.90999985    3.01999998
   16.70111275  150.02099609    4.90999985    3.01999998
   16.70444489  158.32499695    4.90999985    3.01999998
   16.70777893  150.82899475    4.90999985    3.01999998
   16.71083450  145.67999268    4.90999985    3.01999998
   16.71416664  148.62600708    4.90999985    3.00000000
   16.71722221  148.45300293    4.90999985    3.01999998
   16.72055626  156.19500732    4.90999985    3.00000000
   16.72389030  156.91999817    4.90999985    3.01999998
   16.72972298  156.91999817    4.90999985    3.01999998
   16.73388863  160.66499329    4.90999985    3.01999998
   16.73722267  150.43899536    4.90999985    3.01999998
   16.74027824  155.90699768    4.90999985    3.00000000
   16.74361229  160.95500183    4.90999985    3.01999998
   16.74694443  163.29899597    4.90999985    3.01999998
   16.75000000  149.22300720    4.90999985    3.01999998
   16.75333405  161.21200562    4.90999985    3.00000000
   16.75638962  162.03799438    4.90999985    3.00000000
   16.75972176  161.54899597    4.90999985    3.01999998
   16.76305580  159.87800598    4.90999985    3.01999998
   16.76611137  158.74899292    4.90999985    3.01999998
   16.76694489  146.70700073    4.90999985    3.01999998
   16.77249908  146.70700073    4.90999985    3.01999998
   16.77666664  169.39500427    4.90999985    3.01999998
   16.78000069  156.74200439    4.90999985    3.01999998
   16.78333282  163.32800293    4.90999985    3.00000000
   16.78638840  162.48300171    4.90999985    3.00000000
   16.78972244  163.13400269    4.90999985    3.01999998
   16.79305458  151.78999329    4.90999985    3.01999998
   16.79611015  158.96899414    4.90999985    3.01999998
   16.79944420  151.47099304    4.90999985    3.01999998
   16.80027771  151.50999451    4.90999985    3.01999998
   16.80305481  149.62899780    4.90999985    3.01999998
   16.80638885  155.28199768    4.90999985    3.01999998
   16.80972099  145.48599243    4.90999985    3.01999998
   16.81555557  145.48599243    4.90999985    3.00000000
   16.81972313  146.69000244    4.90999985    3.01999998
   16.82277870  135.33799744    4.90999985    3.00000000
   16.82611275  160.41999817    4.90999985    3.01999998
   16.82916832  146.29200745    4.90999985    3.01999998
   16.83250046  155.64900208    4.90999985    3.01999998
   16.83361244  152.22900391    4.90999985    3.01999998
   16.83611107  150.33299255    4.90999985    3.01999998
   16.83944511  150.27799988    4.90999985    3.01999998
   16.84277916  158.75399780    4.90999985    3.01999998
   16.84583473  149.89999390    4.90999985    3.01999998
   16.84916687  151.04600525    4.90999985    3.00000000
   16.85222244  150.33599854    4.90999985    3.01999998
   16.85833359  150.33599854    4.90999985    3.01999998
   16.86250114  149.52200317    4.90999985    3.01999998
   16.86555672  144.90100098    4.90999985    3.01999998
   16.86694527  161.43499756    4.90999985    3.01999998
   16.86944389  147.94200134    4.90999985    3.01999998
   16.87249947  149.25999451    4.90999985    3.01999998
   16.87583351  144.25999451    4.90999985    3.01999998
   16.87888908  147.44000244    4.90999985    3.01999998
   16.88222313  150.77900696    4.90999985    3.01999998
   16.88555527  145.29400635    4.90999985    3.01999998
   16.88861084  142.61999512    4.90999985    3.00000000
   16.89194489  153.13800049    4.90999985    3.01999998
   16.89527702  150.04100037    4.90999985    3.00000000
   16.90111160  150.04100037    4.90999985    3.01999998
   16.90527725  152.19500732    4.90999985    3.01999998
   16.90861130  149.11700439    4.90999985    3.01999998
   16.91166687  145.60499573    4.90999985    3.01999998
   16.91499901  159.48599243    4.90999985    3.01999998
   16.91833305  135.79600525    4.90999985    3.01999998
   16.92138863  149.60099792    4.90999985    3.01999998
   16.92472076  157.59500122    4.90999985    3.00000000
   16.92777634  153.26400757    4.90999985    3.01999998
   16.93111038  144.90499878    4.90999985    3.00000000
   16.93361092  151.09800720    4.90999985    3.00000000
   16.93472099  153.08999634    4.90999985    3.01999998
   16.93805504  160.85400391    4.90999985    3.01999998
   16.94388771  160.85400391    4.90999985    3.01999998
   16.94805527  149.79699707    4.90999985    3.00000000
   16.95138931  151.91200256    4.90999985    3.01999998
   16.95472336  147.20799255    4.90999985    3.00000000
   16.95777893  158.44999695    4.90999985    3.01999998
   16.96111107  146.85299683    4.90999985    3.00000000
   16.96416664  149.43499756    4.90999985    3.00000000
   16.96694565  148.36399841    4.90999985    3.00000000
   16.96777916  156.45899963    4.90999985    3.00000000
   16.97111130  147.01400757    4.90999985    3.01999998
   16.97444534  153.07299805    4.90999985    3.01999998
   16.97750092  145.73100281    4.90999985    3.01999998
   16.98083305  150.02099609    4.90999985    3.01999998
   16.98694420  150.02099609    4.90999985    3.00000000
   16.99083328  140.45399475    4.90999985    3.00000000
   16.99416733  147.77699280    4.90999985    3.00000000
   16.99749947  145.62100220    4.90999985    3.00000000
   17.00027847  147.47599792    4.90999985    3.00000000
   17.00083351  152.23100281    4.90999985    3.01999998
   17.00416756  150.76899719    4.90999985    3.00000000
   17.00749969  141.86599731    4.90999985    3.01999998
   17.01055527  151.22599792    4.90999985    3.00000000
   17.01388931  151.20199585    4.90999985    3.00000000
   17.01722145  148.31599426    4.90999985    3.00000000
   17.02027702  142.34899902    4.90999985    3.01999998
   17.02361107  147.85800171    4.90999985    3.00000000
   17.02972221  147.85800171    4.90999985    3.01999998
   17.03388786  147.43899536    4.90999985    3.01999998
   17.03722191  145.14199829    4.90999985    3.00000000
   17.04027748  146.11099243    4.90999985    3.00000000
   17.04361153  145.02699280    4.90999985    3.01999998
   17.04666710  155.72300720    4.90999985    3.01999998
   17.04999924  140.42199707    4.90999985    3.00000000
   17.05333328  148.72799683    4.90999985    3.01999998
   17.05638885  151.67599487    4.90999985    3.01999998
   17.05972099  149.74800110    4.90999985    3.00000000
   17.06305504  152.41900635    4.90999985    3.00000000
   17.06611061  155.20599365    4.90999985    3.00000000
   17.06694603  151.40299988    4.90999985    3.00000000
   17.07250023  151.40299988    4.90999985    3.01999998
   17.07666779  143.23599243    4.90999985    3.00000000
   17.08000183  156.86500549    4.90999985    3.01999998
   17.08305550  155.48899841    4.90999985    3.01999998
   17.08638954  161.11799622    4.90999985    3.01999998
   17.08944511  158.11500549    4.90999985    3.01999998
   17.09277916  150.88200378    4.90999985    3.01999998
   17.09611130  158.61300659    4.90999985    3.00000000
   17.09916687  149.48100281    4.90999985    3.00000000
   17.10027885  155.19900513    4.90999985    3.00000000
   17.10277748  153.14799500    4.90999985    3.01999998
   17.10611153  159.53300476    4.90999985    3.01999998
   17.10944557  154.83099365    4.90999985    3.01999998
   17.11527824  154.83099365    4.90999985    3.00000000
   17.11944389  159.42300415    4.90999985    3.01999998
   17.12277794  147.94799805    4.90999985    3.01999998
   17.12583351  154.72200012    4.90999985    3.01999998
   17.12916756  154.62100220    4.90999985    3.00000000
   17.13249969  167.36500549    4.90999985    3.01999998
   17.13361168  160.92700195    4.90999985    3.01999998
   17.13583374  153.17100525    4.90999985    3.00000000
   17.13916588  141.29100037    4.90999985    3.00000000
   17.14249992  159.43899536    4.90999985    3.01999998
   17.14555550  157.02299500    4.90999985    3.00000000
   17.14888954  174.04699707    4.90999985    3.01999998
   17.15222168  160.74600220    4.90999985    3.00000000
   17.15833282  160.74600220    4.90999985    3.01999998
   17.16222191  159.46600342    4.90999985    3.00000000
   17.16555595  170.38299561    4.90999985    3.00000000
   17.16694450  164.66900635    4.90999985    3.01999998
   17.16916656  157.89100647    4.90999985    3.00000000
   17.17249870  160.80400085    4.90999985    3.01999998
   17.17583275  153.81199646    4.90999985    3.00000000
   17.17888832  145.96000671    4.90999985    3.00000000
   17.18222237  173.00999451    4.90999985    3.00000000
   17.18555450  158.47099304    4.90999985    3.01999998
   17.18861008  158.38299561    4.90999985    3.01999998
   17.19194412  159.39300537    4.90999985    3.00000000
   17.19499969  150.25100708    4.90999985    3.01999998
   17.20111275  150.25100708    4.90999985    3.00000000
   17.20527840  147.93600464    4.90999985    3.00000000
   17.20833397  143.62500000    4.90999985    3.00000000
   17.21166801  154.63499451    4.90999985    3.00000000
   17.21500015  153.76499939    4.90999985    3.00000000
   17.21805573  153.69000244    4.90999985    3.00000000
   17.22138977  154.22700500    4.90999985    3.00000000
   17.22444534  148.35499573    4.90999985    3.00000000
   17.22777748  143.87500000    4.90999985    3.01999998
   17.23111153  147.34100342    4.90999985    3.01999998
   17.23361206  150.19500732    4.90999985    3.01999998
   17.23472214  159.87500000    4.90999985    3.01999998
   17.23777771  153.18699646    4.90999985    3.00000000
   17.24388885  153.18699646    4.90999985    3.01999998
   17.24805641  145.57400513    4.90999985    3.00000000
   17.25138855  148.90800476    4.90999985    3.01999998
   17.25444412  151.75999451    4.90999985    3.00000000
   17.25777817  143.29800415    4.90999985    3.00000000
   17.26083374  144.27299500    4.90999985    3.00000000
   17.26416588  156.50799561    4.90999985    3.00000000
   17.26694489  153.89999390    4.90999985    3.01999998
   17.26805496  152.53700256    4.90999985    3.01999998
   17.27111053  150.68800354    4.90999985    3.00000000
   17.27444458  148.91499329    4.90999985    3.01999998
   17.27750015  154.46400452    4.90999985    3.00000000
   17.28083229  146.62199402    4.90999985    3.00000000
   17.28666687  146.62199402    4.90999985    3.00000000
   17.29083252  143.10699463    4.90999985    3.00000000
   17.29416656  148.01499939    4.90999985    3.00000000
   17.29722214  151.27799988    4.90999985    3.00000000
   17.30027771  144.81399536    4.90999985    3.00000000
   17.30111122  145.01899719    4.90999985    3.00000000
   17.30416679  156.64599609    4.90999985    3.01999998
   17.30749893  144.82200623    4.90999985    3.00000000
   17.31055450  146.33200073    4.90999985    3.01999998
   17.31416512  141.74400330    4.90999985    3.00000000
   17.31750107  147.47799683    4.90999985    3.00000000
   17.32055664  147.39500427    4.90999985    3.00000000
   17.32389069  157.03900146    4.90999985    3.01999998
   17.32972336  157.03900146    4.90999985    3.00000000
   17.33361244  144.01600647    4.90999985    3.01999998
   17.33694458  152.67700195    4.90999985    3.01999998
   17.34027863  143.55200195    4.90999985    3.00000000
   17.34333420  153.03599548    4.90999985    3.01999998
   17.34666824  150.51699829    4.90999985    3.01999998
   17.35000038  157.94099426    4.90999985    3.00000000
   17.35305595  148.97700500    4.90999985    3.00000000
   17.35639000  156.16999817    4.90999985    3.00000000
   17.35944557  144.38400269    4.90999985    3.01999998
   17.36277771  151.79299927    4.90999985    3.00000000
   17.36611176  156.34300232    4.90999985    3.00000000
   17.36694527  144.38900757    4.90999985    3.00000000
   17.37249947  144.38900757    4.90999985    3.01999998
   17.37666702  149.20700073    4.90999985    3.00000000
   17.37972260  141.03500366    4.90999985    3.00000000
   17.38305473  146.35400391    4.90999985    3.00000000
   17.40055466  147.23800659    4.90999985    3.01999998
   17.40305519  149.78599548    4.90999985    3.00000000
   17.40638924  151.75199890    4.90999985    3.00000000
   17.40944481  146.01400757    4.90999985    3.01999998
   17.41555595  146.01400757    4.90999985    3.00000000
   17.41972160  150.59199524    4.90999985    3.01999998
   17.42277718  146.80799866    4.90999985    3.01999998
   17.42611122  159.47700500    4.90999985    3.00000000
   17.42916679  148.73500061    4.90999985    3.01999998
   17.43249893  148.16799927    4.90999985    3.00000000
   17.43388748  153.11700439    4.90999985    3.01999998
   17.43638802  150.94200134    4.90999985    3.01999998
   17.43944359  156.05999756    4.90999985    3.01999998
   17.44277763  146.28599548    4.90999985    3.01999998
   17.44610977  145.95199585    4.90999985    3.01999998
   17.44916534  155.50500488    4.90999985    3.01999998
   17.45250130  140.65899658    4.90999985    3.00000000
   17.45833397  140.65899658    4.90999985    3.01999998
   17.46250153  148.93600464    4.90999985    3.00000000
   17.46555710  150.10800171    4.90999985    3.01999998
   17.46722221  152.68400574    4.90999985    3.01999998
   17.46944427  147.79800415    4.90999985    3.00000000
   17.47249985  141.43099976    4.90999985    3.00000000
   17.47583389  143.97900391    4.90999985    3.00000000
   17.47916794  146.28500366    4.90999985    3.00000000
   17.48222351  145.75999451    4.90999985    3.01999998
   17.48555565  141.79499817    4.90999985    3.01999998
   17.48888969  143.48500061    4.90999985    3.00000000
   17.49194527  143.06199646    4.90999985    3.00000000
   17.49527740  138.99699402    4.90999985    3.00000000
   17.50111198  138.99699402    4.90999985    3.01999998
   17.50527763  145.88699341    4.90999985    3.01999998
   17.50861168  153.62100220    4.90999985    3.00000000
   17.51166725  136.75100708    4.90999985    3.01999998
   17.51499939  141.74400330    4.90999985    3.01999998
   17.51833344  146.44299316    4.90999985    3.00000000
   17.52138901  145.51800537    4.90999985    3.01999998
   17.52472115  144.72700500    4.90999985    3.01999998
   17.52805519  151.11999512    4.90999985    3.01999998
   17.53111076  156.03199768    4.90999985    3.01999998
   17.53388786  146.37399292    4.90999985    3.01999998
   17.53499985  146.09399414    4.90999985    3.01999998
   17.53805542  150.02699280    4.90999985    3.01999998
   17.54388809  150.02699280    4.90999985    3.01999998
   17.54805565  151.81300354    4.90999985    3.01999998
   17.55138779  149.35099792    4.90999985    3.01999998
   17.55472183  148.87300110    4.90999985    3.01999998
   17.55777740  159.68299866    4.90999985    3.01999998
   17.56110954  142.59800720    4.90999985    3.01999998
   17.56416512  147.88800049    4.90999985    3.01999998
   17.56722260  143.92199707    4.90999985    3.01999998
   17.56805611  147.05599976    4.90999985    3.00000000
   17.57139015  142.18800354    4.90999985    3.00000000
   17.57444572  156.35499573    4.90999985    3.00000000
   17.57777786  148.33200073    4.90999985    3.01999998
   17.58083344  154.30000305    4.90999985    3.00000000
   17.58694458  154.30000305    4.90999985    3.01999998
   17.59111214  148.46600342    4.90999985    3.01999998
   17.59416771  149.00000000    4.90999985    3.00000000
   17.59749985  160.93600464    4.90999985    3.00000000
   17.60055542  144.87399292    4.90999985    3.00000000
   17.60111237  151.91700745    4.90999985    3.00000000
   17.60416794  147.38400269    4.90999985    3.01999998
   17.60750008  143.94200134    4.90999985    3.00000000
   17.61083412  148.82800293    4.90999985    3.00000000
   17.61388969  158.92599487    4.90999985    3.00000000
   17.61722183  151.77999878    4.90999985    3.00000000
   17.62027740  145.00500488    4.90999985    3.01999998
   17.62361145  151.91900635    4.90999985    3.01999998
   17.62972260  151.91900635    4.90999985    3.01999998
   17.63388824  149.85600281    4.90999985    3.01999998
   17.63444519  146.64799500    4.90999985    3.01999998
   17.63750076  153.28100586    4.90999985    3.01999998
   17.64083290  154.71000671    4.90999985    3.00000000
   17.64416695  140.99200439    4.90999985    3.01999998
   17.64722252  151.92500305    4.90999985    3.01999998
   17.65055466  151.30299377    4.90999985    3.00000000
   17.65388870  152.37600708    4.90999985    3.00000000
   17.65694427  149.88499451    4.90999985    3.00000000
   17.66027832  149.08299255    4.90999985    3.00000000
   17.66333389  144.34899902    4.90999985    3.01999998
   17.66666603  150.84300232    4.90999985    3.00000000
   17.66722107  146.81799316    4.90999985    3.00000000
   17.67249870  146.81799316    4.90999985    3.00000000
   17.67666626  143.22399902    4.90999985    3.00000000
   17.68000031  147.10000610    4.90999985    3.00000000
   17.68305397  153.49600220    4.90999985    3.00000000
   17.68638802  145.71600342    4.90999985    3.00000000
   17.68972206  138.92799377    4.90999985    3.01999998
   17.69277763  140.00000000    4.90999985    3.00000000
   17.69610977  142.35499573    4.90999985    3.01999998
   17.69916534  147.11099243    4.90999985    3.01999998
   17.70055580  148.38699341    4.90999985    3.01999998
   17.70305634  145.42599487    4.90999985    3.01999998
   17.70611191  139.13699341    4.90999985    3.00000000
   17.70944595  150.77099609    4.90999985    3.00000000
   17.71527863  150.77099609    4.90999985    3.01999998
   17.71944427  144.17100525    4.90999985    3.00000000
   17.72277832  146.30099487    4.90999985    3.00000000
   17.72611237  138.84500122    4.90999985    3.00000000
   17.72916794  141.61599731    4.90999985    3.01999998
   17.73250008  145.38400269    4.90999985    3.00000000
   17.73388863  149.73599243    4.90999985    3.00000000
   17.73611069  148.18200684    4.90999985    3.01999998
   17.73916626  150.02200317    4.90999985    3.00000000
   17.74250031  149.18499756    4.90999985    3.01999998
   17.74583435  151.61500549    4.90999985    3.01999998
   17.74888992  157.52699280    4.90999985    3.01999998
   17.75222206  144.64399719    4.90999985    3.00000000
   17.75833321  144.64399719    4.90999985    3.01999998
   17.76250076  146.60000610    4.90999985    3.01999998
   17.76555634  157.40899658    4.90999985    3.01999998
   17.76722145  149.06799316    4.90999985    3.01999998
   17.76944351  162.76100159    4.90999985    3.01999998
   17.77249908  150.06199646    4.90999985    3.01999998
   17.77583313  148.05999756    4.90999985    3.00000000
   17.77916718  147.97399902    4.90999985    3.01999998
   17.78222275  155.62100220    4.90999985    3.01999998
   17.78555489  151.83399963    4.90999985    3.00000000
   17.78888893  147.98800659    4.90999985    3.00000000
   17.79194450  150.62500000    4.90999985    3.01999998
   17.79527664  160.23699951    4.90999985    3.00000000
   17.80111122  160.23699951    4.90999985    3.00000000
   17.80527687  156.64399719    4.90999985    3.01999998
   17.80833244  145.77000427    4.90999985    3.01999998
   17.81166649  156.50300598    4.90999985    3.01999998
   17.81499863  162.78900146    4.90999985    3.00000000
   17.81805611  159.53399658    4.90999985    3.00000000
   17.82139015  160.33200073    4.90999985    3.00000000
   17.82472229  158.46600342    4.90999985    3.00000000
   17.82777786  151.56599426    4.90999985    3.00000000
   17.83111191  157.48399353    4.90999985    3.00000000
   17.83388901  151.70199585    4.90999985    3.00000000
   17.83472252  147.53199768    4.90999985    3.00000000
   17.83777809  154.58900452    4.90999985    3.01999998
   17.84388924  154.58900452    4.90999985    3.00000000
   17.84805679  153.39500427    4.90999985    3.00000000
   17.85138893  150.61700439    4.90999985    3.00000000
   17.85444450  144.16700745    4.90999985    3.00000000
   17.85777855  146.98300171    4.90999985    3.00000000
   17.86111069  150.50999451    4.90999985    3.00000000
   17.86416626  156.00399780    4.90999985    3.00000000
   17.86722183  150.57200623    4.90999985    3.00000000
   17.86777878  147.83200073    4.90999985    3.00000000
   17.87083435  149.97500610    4.90999985    3.00000000
   17.87416649  151.47900391    4.90999985    3.00000000
   17.87750053  147.14500427    4.90999985    3.00000000
   17.88055611  151.61799622    4.90999985    3.01999998
   17.88666725  151.61799622    4.90999985    3.00000000
   17.89083290  156.04699707    4.90999985    3.00000000
   17.89416695  158.97000122    4.90999985    3.00000000
   17.89722252  156.77900696    4.90999985    3.00000000
   17.90055466  146.81199646    4.90999985    3.00000000
   17.90111160  151.89100647    4.90999985    3.00000000
   17.90416718  152.27699280    4.90999985    3.00000000
   17.90749931  151.24600220    4.90999985    3.00000000
   17.91083336  154.89100647    4.90999985    3.01999998
   17.91388893  152.08700562    4.90999985    3.01999998
   17.91722107  150.49699402    4.90999985    3.00000000
   17.92055511  145.43400574    4.90999985    3.00000000
   17.92361069  149.37800598    4.90999985    3.00000000
   17.92972183  149.37800598    4.90999985    3.00000000
   17.93361092  145.38299561    4.90999985    3.00000000
   17.93472099  141.92100525    4.90999985    3.00000000
   17.93777657  140.14399719    4.90999985    3.00000000
   17.94111061  145.00199890    4.90999985    3.00000000
   17.94416618  155.49099731    4.90999985    3.00000000
   17.94749832  140.36799622    4.90999985    3.01999998
   17.95083427  152.09800720    4.90999985    3.01999998
   17.95388985  160.20399475    4.90999985    3.00000000
   17.95722389  147.10299683    4.90999985    3.01999998
   17.96055603  142.72599792    4.90999985    3.00000000
   17.96361160  155.11099243    4.90999985    3.00000000
   17.96694565  159.11399841    4.90999985    3.00000000
   17.96750069  147.61999512    4.90999985    3.00000000
   17.97249985  147.61999512    4.90999985    3.00000000
   17.97666740  152.36000061    4.90999985    2.98000002
   17.97972298  146.43600464    4.90999985    3.00000000
   17.98305511  165.96600342    4.90999985    3.00000000
   17.98638916  148.11500549    4.90999985    3.00000000
   17.98944473  149.50199890    4.90999985    3.00000000
   17.99277878  153.52200317    4.90999985    3.00000000
   17.99611092  145.96699524    4.90999985    3.00000000
   17.99916649  141.82400513    4.90999985    3.00000000
   18.00083351  139.80400085    4.90999985    3.00000000
   18.00277710  154.04600525    4.90999985    3.00000000
   18.00611115  146.66200256    4.90999985    2.98000002
   18.00916672  138.56300354    4.90999985    3.00000000
   18.01527786  138.56300354    4.90999985    3.01999998
   18.01944351  153.05499268    4.90999985    3.00000000
   18.02277756  147.95799255    4.90999985    3.00000000
   18.02583313  147.72399902    4.90999985    3.00000000
   18.02916718  142.94400024    4.90999985    3.00000000
   18.03222275  133.57299805    4.90999985    3.00000000
   18.03416634  146.99400330    4.90999985    3.00000000
   18.03610992  152.75999451    4.90999985    3.00000000
   18.03944397  147.61000061    4.90999985    3.00000000
   18.04249954  140.14500427    4.90999985    3.01999998
   18.04583359  147.88699341    4.90999985    3.00000000
   18.04916573  151.49600220    4.90999985    3.01999998
   18.05222130  153.91999817    4.90999985    3.00000000
   18.05805397  153.91999817    4.90999985    3.00000000
   18.06222153  148.44200134    4.90999985    3.00000000
   18.06555557  153.07299805    4.90999985    3.00000000
   18.06750107  145.30999756    4.90999985    3.00000000
   18.06916809  153.15699768    4.90999985    3.00000000
   18.07250023  151.08099365    4.90999985    3.00000000
   18.07555580  146.16299438    4.90999985    3.00000000
   18.07888985  141.76400757    4.90999985    3.00000000
   18.08222389  148.51600647    4.90999985    3.00000000
   18.08527756  145.28999329    4.90999985    3.00000000
   18.08861160  149.10299683    4.90999985    3.00000000
   18.09166718  137.27400208    4.90999985    3.00000000
   18.09500122  146.49699402    4.90999985    3.01999998
   18.10111237  146.49699402    4.90999985    3.00000000
   18.10499954  150.15699768    4.90999985    3.00000000
   18.10833359  142.67500305    4.90999985    3.00000000
   18.11166763  143.38200378    4.90999985    3.01999998
   18.11472321  139.97500610    4.90999985    3.00000000
   18.11805534  139.66600037    4.90999985    3.00000000
   18.12138939  142.63200378    4.90999985    3.00000000
   18.12444496  143.94099426    4.90999985    3.00000000
   18.12777710  147.39700317    4.90999985    3.00000000
   18.13083267  153.27099609    4.90999985    3.00000000
   18.13416672  143.84700012    4.90999985    2.98000002
   18.13472176  145.50900269    4.90999985    2.98000002
   18.13805580  141.78999329    4.90999985    2.98000002
   18.14388847  141.78999329    4.90999985    3.00000000
   18.14805603  151.50900269    4.90999985    3.00000000
   18.15111160  157.71000671    4.90999985    3.00000000
   18.15444374  153.22799683    4.90999985    3.01999998
   18.15777779  155.93699646    4.90999985    3.00000000
   18.16083336  147.49000549    4.90999985    3.00000000
   18.16416550  149.61900330    4.90999985    3.00000000
   18.16722107  146.92300415    4.90999985    3.00000000
   18.16805458  144.92799377    4.90999985    3.00000000
   18.17111015  156.32699585    4.90999985    3.00000000
   18.17416573  147.77600098    4.90999985    3.00000000
   18.17749977  141.67900085    4.90999985    3.00000000
   18.18083191  138.77900696    4.90999985    3.00000000
   18.18666649  138.77900696    4.90999985    3.00000000
   18.19083214  151.40199280    4.90999985    3.00000000
   18.19416618  155.08399963    4.90999985    3.00000000
   18.19722176  147.76199341    4.90999985    3.00000000
   18.20055580  141.13099670    4.90999985    3.00000000
   18.20138931  137.96299744    4.90999985    2.98000002
   18.20416832  143.67599487    4.90999985    3.00000000
   18.20722389  145.86799622    4.90999985    3.00000000
   18.21055603  138.23300171    4.90999985    3.00000000
   18.21389008  142.69200134    4.90999985    3.00000000
   18.21694565  146.64399719    4.90999985    2.98000002
   18.22027779  145.82899475    4.90999985    3.00000000
   18.22333336  136.09199524    4.90999985    3.00000000
   18.22944450  136.09199524    4.90999985    3.00000000
   18.23361206  148.22700500    4.90999985    3.00000000
   18.23472214  152.59700012    4.90999985    3.00000000
   18.23750114  140.66299438    4.90999985    3.00000000
   18.24055672  152.50500488    4.90999985    3.00000000
   18.24388885  147.62199402    4.90999985    3.00000000
   18.24722290  143.32600403    4.90999985    3.00000000
   18.25027847  140.34199524    4.90999985    3.00000000
   18.25361061  145.81500244    4.90999985    3.00000000
   18.25666618  141.58799744    4.90999985    3.00000000
   18.26000023  145.39999390    4.90999985    2.98000002
   18.26333427  144.95300293    4.90999985    3.00000000
   18.26638794  137.71600342    4.90999985    3.00000000
   18.26805496  143.41499329    4.90999985    3.00000000
   18.27249908  143.41499329    4.90999985    2.98000002
   18.27638817  138.30999756    4.90999985    3.00000000
   18.27972221  140.83299255    4.90999985    3.00000000
   18.28305435  152.97099304    4.90999985    3.00000000
   18.28610992  138.99699402    4.90999985    3.00000000
   18.28944397  140.99899292    4.90999985    3.00000000
   18.29277802  137.80099487    4.90999985    2.98000002
   18.29583359  136.78700256    4.90999985    3.00000000
   18.29916573  140.50300598    4.90999985    3.00000000
   18.30138779  141.14599609    4.90999985    3.00000000
   18.30277634  148.46299744    4.90999985    2.98000002
   18.30583191  144.38699341    4.90999985    3.00000000
   18.30916595  137.77099609    4.90999985    3.00000000
   18.31527710  137.77099609    4.90999985    3.00000000
   18.31944466  144.04699707    4.90999985    2.98000002
   18.32250023  144.14100647    4.90999985    2.98000002
   18.32583427  140.61999512    4.90999985    2.98000002
   18.32916832  141.27400208    4.90999985    2.98000002
   18.33222389  143.78700256    4.90999985    3.00000000
   18.33472252  147.50999451    4.90999985    3.00000000
   18.33611107  137.69799805    4.90999985    3.00000000
   18.33916664  138.10000610    4.90999985    3.00000000
   18.34250069  136.91900635    4.90999985    3.00000000
   18.34583473  139.99699402    4.90999985    3.00000000
   18.34889030  145.94099426    4.90999985    3.00000000
   18.35222244  141.17500305    4.90999985    3.00000000
   18.35805511  141.17500305    4.90999985    3.00000000
   18.36222267  137.72900391    4.90999985    3.00000000
   18.36555672  142.50399780    4.90999985    3.00000000
   18.36805534  145.24299622    4.90999985    3.00000000
   18.36916733  134.77699280    4.90999985    2.98000002
   18.37222290  147.25900269    4.90999985    3.00000000
   18.37555504  141.49600220    4.90999985    3.00000000
   18.37888908  142.08000183    4.90999985    2.98000002
   18.38194466  140.10200500    4.90999985    3.00000000
   18.38527679  141.92700195    4.90999985    2.98000002
   18.38833237  140.31700134    4.90999985    2.98000002
   18.39166641  132.81900024    4.90999985    3.00000000
   18.39500046  142.72399902    4.90999985    3.00000000
   18.40083313  142.72399902    4.90999985    3.00000000
   18.41916656  129.18800354    4.90999985    3.00000000
   18.42249870  142.19099426    4.90999985    3.00000000
   18.42583275  142.92300415    4.90999985    3.00000000
   18.42888832  142.93299866    4.90999985    3.00000000
   18.43222237  144.74099731    4.90999985    3.00000000
   18.43555450  142.89900208    4.90999985    2.98000002
   18.43861008  153.73199463    4.90999985    2.98000002
   18.44388771  153.73199463    4.90999985    2.98000002
   18.44805527  138.51600647    4.90999985    3.00000000
   18.45138931  138.20399475    4.90999985    2.98000002
   18.45222282  140.26800537    4.90999985    2.98000002
   18.45499992  145.33599854    4.90999985    3.00000000
   18.45833397  138.99200439    4.90999985    3.00000000
   18.46138954  144.88299561    4.90999985    3.00000000
   18.46472359  140.87199402    4.90999985    2.98000002
   18.46805573  138.65100098    4.90999985    3.00000000
   18.47111130  130.60299683    4.90999985    3.00000000
   18.47444534  139.87500000    4.90999985    3.00000000
   18.47777748  140.13800049    4.90999985    3.00000000
   18.48083305  137.64199829    4.90999985    2.98000002
   18.48694420  137.64199829    4.90999985    2.98000002
   18.49111176  144.08399963    4.90999985    2.98000002
   18.49416733  138.26800537    4.90999985    3.00000000
   18.49749947  148.30900574    4.90999985    2.98000002
   18.50055504  139.87500000    4.90999985    3.00000000
   18.50388908  147.05999756    4.90999985    3.00000000
   18.50722313  149.00199890    4.90999985    3.00000000
   18.51027870  150.09800720    4.90999985    3.00000000
   18.51361084  133.80999756    4.90999985    3.00000000
   18.51694489  144.18600464    4.90999985    3.00000000
   18.51888847  136.54699707    4.90999985    2.98000002
   18.52055550  140.16000366    4.90999985    3.00000000
   18.52388954  149.59100342    4.90999985    3.00000000
   18.52972221  149.59100342    4.90999985    3.00000000
   18.53388786  158.74499512    4.90999985    3.00000000
   18.53694344  139.09899902    4.90999985    2.98000002
   18.54027748  143.35800171    4.90999985    3.00000000
   18.54361153  142.17399597    4.90999985    2.98000002
   18.54666710  139.70199585    4.90999985    2.98000002
   18.54999924  142.17300415    4.90999985    3.00000000
   18.55222130  144.48100281    4.90999985    2.98000002
   18.55360985  146.28999329    4.90999985    3.00000000
   18.55694389  140.12399292    4.90999985    3.00000000
   18.55999947  136.00900269    4.90999985    3.00000000
   18.56333351  142.80999756    4.90999985    3.00000000
   18.56666756  140.04100037    4.90999985    3.00000000
   18.57250023  140.04100037    4.90999985    2.98000002
   18.57666779  144.68299866    4.90999985    2.98000002
   18.58000183  140.63200378    4.90999985    2.98000002
   18.58305550  139.99000549    4.90999985    2.98000002
   18.58583450  142.29699707    4.90999985    2.98000002
   18.58666801  139.69500732    4.90999985    2.98000002
   18.59000015  133.21299744    4.90999985    2.98000002
   18.59333420  140.17599487    4.90999985    3.00000000
   18.59638977  136.86199951    4.90999985    3.00000000
   18.59972191  145.68699646    4.90999985    2.98000002
   18.60277748  148.42100525    4.90999985    2.98000002
   18.60611153  153.86599731    4.90999985    2.98000002
   18.60944557  143.45199585    4.90999985    2.98000002
   18.61527824  143.45199585    4.90999985    2.98000002
   18.61944389  143.30499268    4.90999985    3.00000000
   18.62277794  142.76699829    4.90999985    2.98000002
   18.62611198  146.36799622    4.90999985    3.00000000
   18.62916756  143.66700745    4.90999985    3.00000000
   18.63249969  144.15400696    4.90999985    3.00000000
   18.63555527  137.76899719    4.90999985    3.00000000
   18.63888931  138.02900696    4.90999985    2.98000002
   18.64222145  146.48699951    4.90999985    3.00000000
   18.64527702  140.87699890    4.90999985    3.00000000
   18.64861107  136.32099915    4.90999985    2.98000002
   18.65194321  138.11099243    4.90999985    3.00000000
   18.65250015  139.33599854    4.90999985    3.00000000
   18.65833282  139.33599854    4.90999985    2.98000002
   18.66250038  134.29800415    4.90999985    3.00000000
   18.66555595  135.24099731    4.90999985    3.00000000
   18.66888809  141.93899536    4.90999985    3.00000000
   18.67222214  138.06900024    4.90999985    3.00000000
   18.67527771  137.19900513    4.90999985    3.00000000
   18.67860985  129.32800293    4.90999985    2.98000002
   18.68166542  140.90100098    4.90999985    2.98000002
   18.68499947  134.64700317    4.90999985    2.98000002
   18.68583298  137.31900024    4.90999985    2.98000002
   18.68861008  133.91700745    4.90999985    2.98000002
   18.69194412  151.53500366    4.90999985    2.98000002
   18.69527626  154.38000488    4.90999985    2.98000002
   18.70111275  154.38000488    4.90999985    2.98000002
   18.70527840  144.61999512    4.90999985    2.98000002
   18.70833397  140.65100098    4.90999985    2.98000002
   18.71166801  145.96600342    4.90999985    2.98000002
   18.71500015  143.81100464    4.90999985    2.98000002
   18.71805573  149.11900330    4.90999985    2.98000002
   18.71916771  142.76600647    4.90999985    2.98000002
   18.72166634  142.20700073    4.90999985    2.98000002
   18.72500038  143.42500305    4.90999985    2.98000002
   18.72833443  158.91499329    4.90999985    2.98000002
   18.73139000  144.65199280    4.90999985    2.98000002
   18.73472214  141.93899536    4.90999985    2.98000002
   18.73777771  143.04400635    4.90999985    2.98000002
   18.74388885  143.04400635    4.90999985    2.98000002
   18.74805641  140.14599609    4.90999985    2.98000002
   18.75138855  144.97700500    4.90999985    2.98000002
   18.75250053  151.21600342    4.90999985    2.96000004
   18.75472260  153.50999451    4.90999985    2.98000002
   18.75805473  148.73500061    4.90999985    2.98000002
   18.76138878  142.40699768    4.90999985    2.96000004
   18.76444435  144.88299561    4.90999985    2.96000004
   18.76777840  156.20899963    4.90999985    2.96000004
   18.77083397  143.40600586    4.90999985    2.98000002
   18.77416611  144.77799988    4.90999985    2.98000002
   18.77750015  142.03700256    4.90999985    2.98000002
   18.78055573  143.30700684    4.90999985    2.98000002
   18.78666687  143.30700684    4.90999985    2.98000002
   18.79083252  143.15899658    4.90999985    2.96000004
   18.79416656  133.87699890    4.90999985    2.96000004
   18.79722214  148.32499695    4.90999985    2.98000002
   18.80055428  143.91299438    4.90999985    2.98000002
   18.80388832  143.94599915    4.90999985    2.98000002
   18.80694389  146.42900085    4.90999985    2.96000004
   18.81027794  146.50900269    4.90999985    2.98000002
   18.81361008  141.75700378    4.90999985    2.98000002
   18.81666756  152.07600403    4.90999985    2.98000002
   18.81916809  147.57099915    4.90999985    2.96000004
   18.82027817  151.76300049    4.90999985    2.96000004
   18.82361221  148.69200134    4.90999985    2.96000004
   18.82972336  148.69200134    4.90999985    2.96000004
   18.83361244  140.13499451    4.90999985    2.96000004
   18.83694458  150.60200500    4.90999985    2.98000002
   18.84027863  144.56399536    4.90999985    2.96000004
   18.84333420  146.79200745    4.90999985    2.96000004
   18.84666824  142.55099487    4.90999985    2.96000004
   18.85000038  148.19999695    4.90999985    2.98000002
   18.85250092  159.26100159    4.90999985    2.98000002
   18.85333443  164.09500122    4.90999985    2.98000002
   18.85666656  149.68499756    4.90999985    2.98000002
   18.86000061  144.52699280    4.90999985    2.96000004
   18.86305618  153.05799866    4.90999985    2.96000004
   18.86638832  154.05900574    4.90999985    2.96000004
   18.87249947  154.05900574    4.90999985    2.96000004
   18.87666702  137.91700745    4.90999985    2.96000004
   18.87972260  146.13000488    4.90999985    2.96000004
   18.88305473  138.25399780    4.90999985    2.98000002
   18.88583374  145.70599365    4.90999985    2.98000002
   18.88666725  144.78900146    4.90999985    2.98000002
   18.88999939  135.13800049    4.90999985    2.96000004
   18.89333344  148.32299805    4.90999985    2.96000004
   18.89638901  140.87699890    4.90999985    2.96000004
   18.89972115  140.01400757    4.90999985    2.96000004
   18.90277672  131.08999634    4.90999985    2.98000002
   18.90611076  134.49400330    4.90999985    2.94000006
   18.90944481  134.60899353    4.90999985    2.98000002
   18.91527748  134.60899353    4.90999985    2.98000002
   18.91944313  127.26699829    4.90999985    2.96000004
   18.92277718  142.70199585    4.90999985    2.98000002
   18.92583275  149.00999451    4.90999985    2.98000002
   18.92916679  139.22000122    4.90999985    2.96000004
   18.93249893  144.41999817    4.90999985    2.96000004
   18.93555450  140.48500061    4.90999985    2.96000004
   18.93888855  145.91999817    4.90999985    2.96000004
   18.94194412  141.55000305    4.90999985    2.94000006
   18.94527626  142.28100586    4.90999985    2.96000004
   18.94861031  148.40199280    4.90999985    2.96000004
   18.95166779  141.42399597    4.90999985    2.96000004
   18.95250130  147.52600098    4.90999985    2.96000004
   18.95805550  147.52600098    4.90999985    2.98000002
   18.96222305  145.41299438    4.90999985    2.96000004
   18.96555710  145.48399353    4.90999985    2.96000004
   18.96861076  163.12399292    4.90999985    2.98000002
   18.97194481  162.94700623    4.90999985    2.96000004
   18.97527885  160.81500244    4.90999985    2.96000004
   18.97833443  163.78900146    4.90999985    2.96000004
   18.98166656  162.60699463    4.90999985    2.96000004
   18.98500061  151.21499634    4.90999985    2.96000004
   18.98583412  157.08599854    4.90999985    2.96000004
   18.98833275  159.42700195    4.90999985    2.96000004
   18.99166679  156.52200317    4.90999985    2.96000004
   18.99500084  151.61599731    4.90999985    2.98000002
   19.00111198  151.61599731    4.90999985    2.96000004
   19.00499916  145.06900024    4.90999985    2.96000004
   19.00833321  150.02000427    4.90999985    2.96000004
   19.01166725  142.75900269    4.90999985    2.96000004
   19.01472282  151.40899658    4.90999985    2.96000004
   19.01805496  150.27900696    4.90999985    2.96000004
   19.01916695  140.05599976    4.90999985    2.96000004
   19.02166557  154.65199280    4.90999985    2.94000006
   19.02499962  141.50900269    4.90999985    2.96000004
   19.02833366  145.44099426    4.90999985    2.96000004
   19.03138924  159.00799561    4.90999985    2.96000004
   19.03472137  140.87899780    4.90999985    2.96000004
   19.03805542  161.41400146    4.90999985    2.96000004
   19.04388809  161.41400146    4.90999985    2.96000004
   19.04805565  162.57899475    4.90999985    2.96000004
   19.05111122  145.11700439    4.90999985    2.96000004
   19.05249977  153.60499573    4.90999985    2.96000004
   19.05472183  157.83099365    4.90999985    2.96000004
   19.05805397  157.17100525    4.90999985    2.96000004
   19.06138802  159.12500000    4.90999985    2.96000004
   19.06444359  167.20599365    4.90999985    2.96000004
   19.06777954  161.31700134    4.90999985    2.96000004
   19.07111168  161.63099670    4.90999985    2.96000004
   19.07416725  167.28399658    4.90999985    2.96000004
   19.07750130  151.18299866    4.90999985    2.96000004
   19.08055687  144.97900391    4.90999985    2.96000004
   19.08666801  144.97900391    4.90999985    2.96000004
   19.09083366  147.67199707    4.90999985    2.94000006
   19.09416771  151.80499268    4.90999985    2.96000004
   19.09722328  146.51899719    4.90999985    2.96000004
   19.10055542  141.56300354    4.90999985    2.96000004
   19.10361099  160.14700317    4.90999985    2.96000004
   19.10694504  150.15699768    4.90999985    2.94000006
   19.11027908  152.14199829    4.90999985    2.96000004
   19.11333466  154.42399597    4.90999985    2.94000006
   19.11666679  162.36199951    4.90999985    2.94000006
   19.11916733  162.63299561    4.90999985    2.94000006
   19.12027740  155.38099670    4.90999985    2.94000006
   19.12361145  154.07499695    4.90999985    2.94000006
   19.12944412  154.07499695    4.90999985    2.96000004
   19.13361168  168.04699707    4.90999985    2.94000006
   19.13694382  161.58299255    4.90999985    2.96000004
   19.13999939  168.05599976    4.90999985    2.94000006
   19.14333344  162.42599487    4.90999985    2.94000006
   19.14666748  169.78900146    4.90999985    2.94000006
   19.14972115  165.87899780    4.90999985    2.94000006
   19.15250015  152.96600342    4.90999985    2.94000006
   19.15333366  161.74400330    4.90999985    2.94000006
   19.15666580  143.77400208    4.90999985    2.94000006
   19.15999985  170.36000061    4.90999985    2.94000006
   19.16305542  152.64900208    4.90999985    2.94000006
   19.16638756  164.77999878    4.90999985    2.94000006
   19.17249870  164.77999878    4.90999985    2.94000006
   19.17638779  155.39700317    4.90999985    2.94000006
   19.17972183  140.53599548    4.90999985    2.94000006
   19.18305397  177.68600464    4.90999985    2.94000006
   19.18583298  154.05499268    4.90999985    2.94000006
   19.18638802  147.57099915    4.90999985    2.94000006
   19.18972206  164.23300171    4.90999985    2.94000006
   19.19305420  162.34800720    4.90999985    2.94000006
   19.19610977  163.88499451    4.90999985    2.94000006
   19.19944382  173.81199646    4.90999985    2.94000006
   19.20277786  180.43200684    4.90999985    2.94000006
   19.20583344  162.86199951    4.90999985    2.94000006
   19.20916748  164.64999390    4.90999985    2.94000006
   19.21527863  164.64999390    4.90999985    2.94000006
   19.21944427  165.10099792    4.90999985    2.94000006
   19.22249985  167.35499573    4.90999985    2.94000006
   19.22583389  168.20100403    4.90999985    2.94000006
   19.22916794  178.33799744    4.90999985    2.93000007
   19.23222351  177.78700256    4.90999985    2.94000006
   19.23555565  189.46699524    4.90999985    2.94000006
   19.23861122  182.21600342    4.90999985    2.94000006
   19.24194527  167.00999451    4.90999985    2.94000006
   19.24527740  184.40600586    4.90999985    2.94000006
   19.24833298  177.64300537    4.90999985    2.94000006
   19.25166702  186.69200134    4.90999985    2.94000006
   19.25250053  183.35499573    4.90999985    2.94000006
   19.25805473  183.35499573    4.90999985    2.94000006
   19.26222229  205.74800110    4.90999985    2.94000006
   19.26555634  191.94999695    4.90999985    2.94000006
   19.26861000  202.99000549    4.90999985    2.94000006
   19.27194405  190.26600647    4.90999985    2.94000006
   19.27527809  188.36099243    4.90999985    2.94000006
   19.27833366  166.45700073    4.90999985    2.93000007
   19.28166580  224.53300476    4.90999985    2.94000006
   19.28499985  204.67199707    4.90999985    2.94000006
   19.28583336  203.05900574    4.90999985    2.93000007
   19.28861046  182.61199951    4.90999985    2.94000006
   19.29166603  204.31500244    4.90999985    2.94000006
   19.29500008  218.95799255    4.90999985    2.93000007
   19.30083275  218.95799255    4.90999985    2.94000006
   19.30499840  204.07499695    4.90999985    2.94000006
   19.30833244  177.06100464    4.90999985    2.93000007
   19.31138802  224.68699646    4.90999985    2.94000006
   19.31472206  210.83700562    4.90999985    2.94000006
   19.31805611  206.37199402    4.90999985    2.94000006
   19.31916809  214.78700256    4.90999985    2.94000006
   19.32166672  214.03199768    4.90999985    2.94000006
   19.32472229  220.58399963    4.90999985    2.94000006
   19.32805634  188.33999634    4.90999985    2.93000007
   19.33111191  211.40600586    4.90999985    2.94000006
   19.33444595  194.96600342    4.90999985    2.94000006
   19.33777809  207.84599304    4.90999985    2.93000007
   19.34361267  207.84599304    4.90999985    2.93000007
   19.34777832  211.31599426    4.90999985    2.93000007
   19.35111237  219.71699524    4.90999985    2.94000006
   19.35250092  234.08200073    4.90999985    2.94000006
   19.35499954  238.04299927    4.90999985    2.94000006
   19.35805511  181.52099609    4.90999985    2.94000006
   19.36138916  177.41999817    4.90999985    2.94000006
   19.36444473  220.40199280    4.90999985    2.93000007
   19.36777878  226.49600220    4.90999985    2.94000006
   19.37111092  216.08299255    4.90999985    2.93000007
   19.37416649  247.68200684    4.90999985    2.93000007
   19.37750053  244.06399536    4.90999985    2.93000007
   19.38083267  230.84500122    4.90999985    2.93000007
   19.38666725  230.84500122    4.90999985    2.93000007
   19.39083290  225.97099304    4.90999985    2.94000006
   19.39388847  223.97399902    4.90999985    2.94000006
   19.39722252  213.18499756    4.90999985    2.91000009
   19.40055466  230.49800110    4.90999985    2.93000007
   19.40361023  225.26300049    4.90999985    2.94000006
   19.40694427  234.55400085    4.90999985    2.93000007
   19.40999985  190.65600586    4.90999985    2.93000007
   19.41333389  226.85699463    4.90999985    2.93000007
   19.41666603  241.59100342    4.90999985    2.93000007
   19.41916656  230.01499939    4.90999985    2.94000006
   19.43972206  230.01499939    4.90999985    2.93000007
   19.44388771  244.25799561    4.90999985    2.93000007
   19.44722176  230.15899658    4.90999985    2.93000007
   19.45027924  233.47900391    4.90999985    2.93000007
   19.45250130  248.59700012    4.90999985    2.93000007
   19.45416832  210.92700195    4.90999985    2.93000007
   19.45722389  249.62800598    4.90999985    2.93000007
   19.46055603  228.42700195    4.90999985    2.94000006
   19.46389008  223.47399902    4.90999985    2.93000007
   19.46694565  251.39100647    4.90999985    2.94000006
   19.47027779  218.35499573    4.90999985    2.93000007
   19.47361183  235.16499329    4.90999985    2.93000007
   19.47666740  227.33999634    4.90999985    2.94000006
   19.48250008  227.33999634    4.90999985    2.93000007
   19.48666763  218.73599243    4.90999985    2.93000007
   19.48999977  201.04100037    4.90999985    2.93000007
   19.49305534  218.87699890    4.90999985    2.91000009
   19.49638939  209.42500305    4.90999985    2.93000007
   19.49972153  215.02099609    4.90999985    2.93000007
   19.50277710  224.61700439    4.90999985    2.93000007
   19.50611115  217.61799622    4.90999985    2.93000007
   19.50916672  209.68200684    4.90999985    2.93000007
   19.51250076  204.16999817    4.90999985    2.93000007
   19.51583290  199.69200134    4.90999985    2.93000007
   19.51888847  206.66999817    4.90999985    2.93000007
   19.51944351  212.07299805    4.90999985    2.93000007
   19.52527809  212.07299805    4.90999985    2.93000007
   19.52944374  209.82299805    4.90999985    2.94000006
   19.53277779  192.75300598    4.90999985    2.93000007
   19.53610992  195.76300049    4.90999985    2.93000007
   19.53916550  223.87300110    4.90999985    2.91000009
   19.54249954  204.97500610    4.90999985    2.93000007
   19.54555511  204.41600037    4.90999985    2.91000009
   19.54888916  190.67700195    4.90999985    2.91000009
   19.55222130  197.64900208    4.90999985    2.93000007
   19.55277634  203.92100525    4.90999985    2.93000007
   19.55583191  202.13299561    4.90999985    2.91000009
   19.55916595  205.47700500    4.90999985    2.91000009
   19.56222153  209.04299927    4.90999985    2.91000009
   19.56833458  209.04299927    4.90999985    2.93000007
   19.57250023  198.68099976    4.90999985    2.91000009
   19.57555580  195.55599976    4.90999985    2.91000009
   19.57888985  201.48100281    4.90999985    2.91000009
   19.58194542  190.43699646    4.90999985    2.93000007
   19.58527756  206.91700745    4.90999985    2.91000009
   19.58611107  207.58500671    4.90999985    2.91000009
   19.58889008  207.56500244    4.90999985    2.91000009
   19.59222221  199.56599426    4.90999985    2.91000009
   19.59527779  195.64500427    4.90999985    2.91000009
   19.59861183  196.00799561    4.90999985    2.91000009
   19.60166740  191.07899475    4.90999985    2.93000007
   19.60499954  181.02699280    4.90999985    2.91000009
   19.61111069  181.02699280    4.90999985    2.93000007
   19.61527824  186.78300476    4.90999985    2.91000009
   19.61833382  196.22500610    4.90999985    2.91000009
   19.61944389  183.39900208    4.90999985    2.91000009
   19.62194443  187.17300415    4.90999985    2.89000010
   19.62527847  189.81399536    4.90999985    2.93000007
   19.62833405  183.02999878    4.90999985    2.91000009
   19.63166618  191.38299561    4.90999985    2.91000009
   19.63472176  190.34100342    4.90999985    2.93000007
   19.63805580  192.45700073    4.90999985    2.91000009
   19.64138794  193.06900024    4.90999985    2.91000009
   19.64444351  192.13699341    4.90999985    2.93000007
   19.64777756  185.33399963    4.90999985    2.91000009
   19.65388870  185.33399963    4.90999985    2.91000009
   19.65805435  187.25799561    4.90999985    2.91000009
   19.66138840  188.80099487    4.90999985    2.91000009
   19.66444397  179.21099854    4.90999985    2.91000009
   19.66777802  186.79200745    4.90999985    2.91000009
   19.67083359  177.22500610    4.90999985    2.91000009
   19.67416573  180.83099365    4.90999985    2.93000007
   19.67749977  189.89100647    4.90999985    2.93000007
   19.68055534  196.98399353    4.90999985    2.89000010
   19.68388748  178.55000305    4.90999985    2.91000009
   19.68610954  183.67900085    4.90999985    2.91000009
   19.68750000  177.66799927    4.90999985    2.93000007
   19.69083214  185.67300415    4.90999985    2.91000009
   19.69666672  185.67300415    4.90999985    2.93000007
   19.70083427  178.83099365    4.90999985    2.91000009
   19.70416832  175.15600586    4.90999985    2.91000009
   19.70722389  177.48800659    4.90999985    2.91000009
   19.71055603  158.96200562    4.90999985    2.91000009
   19.71389008  179.86000061    4.90999985    2.91000009
   19.71694565  182.43600464    4.90999985    2.91000009
   19.71944427  185.40899658    4.90999985    2.91000009
   19.72055626  189.98699951    4.90999985    2.91000009
   19.72389030  187.95300293    4.90999985    2.91000009
   19.72694588  185.32099915    4.90999985    2.91000009
   19.73027802  176.11399841    4.90999985    2.91000009
   19.73333359  179.45599365    4.90999985    2.89000010
   19.73972321  179.45599365    4.90999985    2.91000009
   19.74361229  187.44599915    4.90999985    2.91000009
   19.74694443  206.24299622    4.90999985    2.91000009
   19.75027847  176.12699890    4.90999985    2.91000009
   19.75277710  197.10899353    4.90999985    2.91000009
   19.75388908  194.77999878    4.90999985    2.91000009
   19.75722313  187.93200684    4.90999985    2.89000010
   19.76027870  237.49699402    4.90999985    2.91000009
   19.76361084  188.64900208    4.90999985    2.91000009
   19.76666641  201.88900757    4.90999985    2.91000009
   19.77000046  220.46800232    4.90999985    2.91000009
   19.77333260  230.19000244    4.90999985    2.91000009
   19.77638817  228.51600647    4.90999985    2.89000010
   19.78249931  228.51600647    4.90999985    2.89000010
   19.78666687  235.78700256    4.90999985    2.91000009
   19.78972244  232.88400269    4.90999985    2.91000009
   19.79305458  239.06500244    4.90999985    2.91000009
   19.79638863  263.89801025    4.90999985    2.91000009
   19.79944420  238.13499451    4.90999985    2.91000009
   19.80277634  255.54899597    4.90999985    2.89000010
   19.80583191  266.39199829    4.90999985    2.89000010
   19.80916595  243.80799866    4.90999985    2.89000010
   19.81250000  280.56600952    4.90999985    2.89000010
   19.81555557  241.55099487    4.90999985    2.89000010
   19.81888962  244.84300232    4.90999985    2.89000010
   19.81944466  238.22900391    4.90999985    2.89000010
   19.82527924  238.22900391    4.90999985    2.89000010
   19.82944489  244.84899902    4.90999985    2.89000010
   19.83277893  245.70799255    4.90999985    2.89000010
   19.83583450  221.98399353    4.90999985    2.89000010
   19.83916664  230.64399719    4.90999985    2.89000010
   19.84222221  250.69000244    4.90999985    2.89000010
   19.84555626  214.14700317    4.90999985    2.91000009
   19.84889030  205.86999512    4.90999985    2.89000010
   19.85194397  215.30000305    4.90999985    2.91000009
   19.85277748  233.52000427    4.90999985    2.91000009
   19.85555649  214.08000183    4.90999985    2.86999989
   19.85888863  193.69999695    4.90999985    2.91000009
   19.86194420  210.75900269    4.90999985    2.89000010
   19.86805534  210.75900269    4.90999985    2.89000010
   19.87222290  247.42100525    4.90999985    2.89000010
   19.87555504  278.16500854    4.90999985    2.89000010
   19.87861061  211.35299683    4.90999985    2.89000010
   19.88194466  217.33500671    4.90999985    2.89000010
   19.88527679  203.60099792    4.90999985    2.89000010
   19.88611031  221.20700073    4.90999985    2.89000010
   19.88888931  191.13299561    4.90999985    2.89000010
   19.89222145  202.81500244    4.90999985    2.86999989
   19.89527702  201.20100403    4.90999985    2.89000010
   19.89861107  212.53999329    4.90999985    2.91000009
   19.90194321  187.78500366    4.90999985    2.89000010
   19.90499878  197.88400269    4.90999985    2.89000010
   19.91110992  197.88400269    4.90999985    2.89000010
   19.91499901  208.09800720    4.90999985    2.91000009
   19.91833305  180.25700378    4.90999985    2.89000010
   19.91944313  198.92599487    4.90999985    2.86999989
   19.92194366  186.58900452    4.90999985    2.89000010
   19.92527771  188.98899841    4.90999985    2.86999989
   19.92833328  171.86799622    4.90999985    2.91000009
   19.93166542  189.91200256    4.90999985    2.89000010
   19.93499947  187.91700745    4.90999985    2.89000010
   19.93805504  195.77400208    4.90999985    2.86999989
   19.94138718  158.01899719    4.90999985    2.89000010
   19.94444275  172.69700623    4.90999985    2.89000010
   19.94777679  175.52999878    4.90999985    2.89000010
   19.95388985  175.52999878    4.90999985    2.86999989
   19.95805550  173.41099548    4.90999985    2.86999989
   19.96111107  162.44599915    4.90999985    2.89000010
   19.96444511  146.96000671    4.90999985    2.89000010
   19.96777916  155.91700745    4.90999985    2.86999989
   19.97083473  156.88000488    4.90999985    2.89000010
   19.97416687  158.56100464    4.90999985    2.89000010
   19.97722244  155.23300171    4.90999985    2.89000010
   19.98055649  182.34399414    4.90999985    2.86999989
   19.98388863  174.59899902    4.90999985    2.89000010
   19.98611069  179.75599670    4.90999985    2.89000010
   19.98750114  179.07400513    4.90999985    2.86999989
   19.99083328  182.97300720    4.90999985    2.89000010
   19.99666786  182.97300720    4.90999985    2.86999989
   20.00083351  183.77099609    4.90999985    2.89000010
   20.00388908  198.28500366    4.90999985    2.86999989
   20.00722313  186.67999268    4.90999985    2.89000010
   20.01055527  173.97399902    4.90999985    2.89000010
   20.01361084  168.94799805    4.90999985    2.86999989
   20.01694489  168.15600586    4.90999985    2.86999989
   20.01944351  200.84300232    4.90999985    2.86999989
   20.02055550  192.18200684    4.90999985    2.86999989
   20.02388954  178.37399292    4.90999985    2.86999989
   20.02694511  178.63200378    4.90999985    2.86999989
   20.03027725  216.72099304    4.90999985    2.86999989
   20.03361130  169.56399536    4.90999985    2.86999989
   20.03944397  169.56399536    4.90999985    2.86999989
   20.04361153  150.25900269    4.90999985    2.86999989
   20.04694366  179.13999939    4.90999985    2.86999989
   20.04999924  172.45199585    4.90999985    2.86999989
   20.05277634  176.59300232    4.90999985    2.86999989
   20.05360985  179.40199280    4.90999985    2.86999989
   20.05694389  156.50999451    4.90999985    2.86999989
   20.05999947  190.92599487    4.90999985    2.86999989
   20.06333351  187.37800598    4.90999985    2.86999989
   20.06666756  199.70199585    4.90999985    2.86999989
   20.06972313  193.27099609    4.90999985    2.86999989
   20.07305717  203.78199768    4.90999985    2.86999989
   20.07638931  202.86300659    4.90999985    2.86999989
   20.08222389  202.86300659    4.90999985    2.86999989
   20.08638954  207.88600159    4.90999985    2.86999989
   20.08972359  152.23500061    4.90999985    2.86999989
   20.09305573  200.29299927    4.90999985    2.86999989
   20.09611130  173.84399414    4.90999985    2.86999989
   20.09944534  187.60699463    4.90999985    2.86999989
   20.10250092  204.33999634    4.90999985    2.86999989
   20.10583305  204.90100098    4.90999985    2.84999990
   20.10916710  192.06599426    4.90999985    2.86999989
   20.11222267  199.10699463    4.90999985    2.86999989
   20.11555672  196.70700073    4.90999985    2.86999989
   20.11888885  191.56399536    4.90999985    2.86999989
   20.11944389  198.98699951    4.90999985    2.84999990
   20.12527847  198.98699951    4.90999985    2.84999990
   20.12944412  200.81500244    4.90999985    2.84999990
   20.13249969  182.57200623    4.90999985    2.84999990
   20.13583374  184.29600525    4.90999985    2.86999989
   20.13888931  203.80900574    4.90999985    2.84999990
   20.14222145  197.12800598    4.90999985    2.84999990
   20.14555550  173.38099670    4.90999985    2.84999990
   20.14888954  179.73599243    4.90999985    2.86999989
   20.15194321  165.64599609    4.90999985    2.86999989
   20.15277672  183.55299377    4.90999985    2.84999990
   20.15555573  188.28599548    4.90999985    2.84999990
   20.15888786  220.91799927    4.90999985    2.84999990
   20.16194344  179.71699524    4.90999985    2.84999990
   20.16805458  179.71699524    4.90999985    2.84999990
   20.17222214  190.03100586    4.90999985    2.84999990
   20.17527771  187.89199829    4.90999985    2.82999992
   20.17860985  183.85400391    4.90999985    2.84999990
   20.18194389  200.46099854    4.90999985    2.84999990
   20.18499947  180.03999329    4.90999985    2.84999990
   20.18638802  183.70399475    4.90999985    2.86999989
   20.18861008  196.43600464    4.90999985    2.84999990
   20.19194412  174.28900146    4.90999985    2.84999990
   20.19499969  160.16099548    4.90999985    2.84999990
   20.19833183  172.42799377    4.90999985    2.82999992
   20.20166779  180.55200195    4.90999985    2.84999990
   20.20472336  176.92100525    4.90999985    2.84999990
   20.21083450  176.92100525    4.90999985    2.84999990
   20.21500015  163.32699585    4.90999985    2.82999992
   20.21833420  174.26899719    4.90999985    2.82999992
   20.21972275  207.76800537    4.90999985    2.82999992
   20.22194481  186.90600586    4.90999985    2.84999990
   20.22527885  202.10899353    4.90999985    2.80999994
   20.22861099  185.61799622    4.90999985    2.84999990
   20.23166656  174.36799622    4.90999985    2.84999990
   20.23500061  184.20100403    4.90999985    2.82999992
   20.23805618  174.53300476    4.90999985    2.84999990
   20.24138832  168.82699585    4.90999985    2.84999990
   20.24472237  185.60000610    4.90999985    2.82999992
   20.24777794  167.69000244    4.90999985    2.82999992
   20.25361061  167.69000244    4.90999985    2.80999994
   20.25777817  171.65800476    4.90999985    2.82999992
   20.26111031  171.46499634    4.90999985    2.84999990
   20.26444435  178.11799622    4.90999985    2.82999992
   20.26749992  183.98800659    4.90999985    2.82999992
   20.27083397  196.23500061    4.90999985    2.82999992
   20.27388954  202.95599365    4.90999985    2.82999992
   20.27722168  229.32499695    4.90999985    2.82999992
   20.28055573  228.28900146    4.90999985    2.82999992
   20.28361130  216.95700073    4.90999985    2.80999994
   20.28638840  230.52600098    4.90999985    2.82999992
   20.28722191  258.40701294    4.90999985    2.82999992
   20.29055595  223.28199768    4.90999985    2.82999992
   20.29666710  223.28199768    4.90999985    2.82999992
   20.30083275  216.65100098    4.90999985    2.82999992
   20.30388832  222.19900513    4.90999985    2.80999994
   20.30722237  220.49800110    4.90999985    2.82999992
   20.31027794  220.98599243    4.90999985    2.80999994
   20.31361008  220.02900696    4.90999985    2.82999992
   20.31694603  226.62899780    4.90999985    2.82999992
   20.31972313  225.15499878    4.90999985    2.80999994
   20.32055664  216.00599670    4.90999985    2.82999992
   20.32389069  212.77799988    4.90999985    2.84999990
   20.32694626  204.34700012    4.90999985    2.82999992
   20.33027840  211.01699829    4.90999985    2.82999992
   20.33361244  216.39799500    4.90999985    2.80999994
   20.33944511  216.39799500    4.90999985    2.80999994
   20.34361267  220.47700500    4.90999985    2.80999994
   20.34666824  214.42399597    4.90999985    2.80999994
   20.35000038  246.65800476    4.90999985    2.80999994
   20.35305595  234.05900574    4.90999985    2.80999994
   20.35361099  232.08999634    4.90999985    2.80999994
   20.35694504  223.11000061    4.90999985    2.80999994
   20.36027908  209.34700012    4.90999985    2.82999992
   20.36333466  214.74200439    4.90999985    2.82999992
   20.36666679  210.50900269    4.90999985    2.80999994
   20.36972237  229.16200256    4.90999985    2.82999992
   20.37305641  218.14399719    4.90999985    2.80999994
   20.37638855  219.28399658    4.90999985    2.80999994
   20.38222313  219.28399658    4.90999985    2.80999994
   20.38638878  226.14399719    4.90999985    2.80999994
   20.38972282  202.98399353    4.90999985    2.80999994
   20.39277840  226.19700623    4.90999985    2.80999994
   20.39611053  212.48199463    4.90999985    2.80999994
   20.39944458  221.63099670    4.90999985    2.80999994
   20.40250015  210.06700134    4.90999985    2.80999994
   20.40583229  208.20899963    4.90999985    2.80999994
   20.40888786  220.61700439    4.90999985    2.80999994
   20.41222191  211.73300171    4.90999985    2.80999994
   20.41555595  226.99099731    4.90999985    2.78999996
   20.41860962  128.88299561    4.90999985    2.78999996
   20.41972160  146.91499329    4.90999985    2.80999994
   20.42499924  146.91499329    4.90999985    2.78999996
   20.42916679   -1.00000000    4.90999985    2.78999996
   20.43249893   -1.00000000    4.90999985    2.80999994
   20.43555450   -1.00000000    4.90999985    2.80999994
   20.45555687   -1.00000000    4.90999985    2.78999996
   20.45888901   -1.00000000    4.90999985    2.78999996
   20.46194458   -1.00000000    4.90999985    2.78999996
   20.47222328   -1.00000000    4.90999985    2.76999998
   20.47527885   -1.00000000    4.90999985    2.78999996
   20.47861099   -1.00000000    4.90999985    2.78999996
   20.48194504   -1.00000000    4.90999985    2.78999996
   20.48500061   -1.00000000    4.90999985    2.76999998
   20.48861122   -1.00000000    4.90999985    2.78999996
   20.49166679   -1.00000000    4.90999985    2.78999996
   20.49500084   -1.00000000    4.90999985    2.76999998
   20.49805641   -1.00000000    4.90999985    2.76999998
   20.50138855   -1.00000000    4.90999985    2.78999996
   20.50472260   -1.00000000    4.90999985    2.76999998
   20.51499939   -1.00000000    4.90999985    2.78999996
   20.51833344   -1.00000000    4.90999985    2.78999996
   20.52194405   -1.00000000    4.90999985    2.78999996
   20.52499962   -1.00000000    4.90999985    2.76999998
   20.52833366   -1.00000000    4.90999985    2.76999998
   20.53166580   -1.00000000    4.90999985    2.76999998
   20.53472137   -1.00000000    4.90999985    2.76999998
   20.53805542   -1.00000000    4.90999985    2.76999998
