    HOUR (UT)   FLARE FACTOR    SKY TESTER    SUN TESTER
   12.82777786   -1.00000000   -1.00000000   -1.00000000
   12.90361118  306.85598755    4.90999985    2.30999994
   12.90694427  281.60998535    4.90999985    2.28999996
   12.91027737  243.54299927    4.90999985    2.30999994
   12.91333294  234.60699463    4.90999985    2.30999994
   12.91666698  169.42500305    4.90999985    2.28999996
   12.92000008  171.96699524    4.90999985    2.30999994
   12.92416668  171.96699524    4.90999985    2.28999996
   12.92805576  142.38499451    4.90999985    2.28999996
   12.93138885  103.12699890    4.90999985    2.30999994
   12.93472195  106.53399658    4.90999985    2.28999996
   12.93694496  123.45300293    4.90999985    2.30999994
   12.93833351   85.73930359    4.90999985    2.30999994
   12.94166660   65.81510162    4.90999985    2.30999994
   12.94472218   33.51029968    4.90999985    2.30999994
   12.94805527   -1.00000000    4.90999985    2.30999994
   12.95111084   -1.00000000    4.90999985    2.30999994
   12.95444393   -1.00000000    4.90999985    2.30999994
   12.95777798   -1.00000000    4.90999985    2.32999992
   12.96083355   -1.00000000    4.90999985    2.30999994
   12.96694374   -1.00000000    4.90999985    2.30999994
   12.97111034   -1.00000000    4.90999985    2.30999994
   12.97416592   -1.00000000    4.90999985    2.30999994
   12.97749996   -1.00000000    4.90999985    2.30999994
   12.98055553   -1.00000000    4.90999985    2.32999992
   12.98388958   -1.00000000    4.90999985    2.32999992
   12.98722267   -1.00000000    4.90999985    2.32999992
   12.99027824   -1.00000000    4.90999985    2.32999992
   12.99361134   -1.00000000    4.90999985    2.32999992
   12.99694443   -1.00000000    4.90999985    2.32999992
   13.00000000   -1.00000000    4.90999985    2.32999992
   13.00333309   -1.00000000    4.90999985    2.32999992
   13.01388931   -1.00000000    4.90999985    2.32999992
   13.01694393   -1.00000000    4.90999985    2.32999992
   13.02027798   -1.00000000    4.90999985    2.34999990
   13.02333355   -1.00000000    4.90999985    2.32999992
   13.02666664   -1.00000000    4.90999985    2.32999992
   13.02999973   -1.00000000    4.90999985    2.32999992
   13.03305531   -1.00000000    4.90999985    2.34999990
   13.03638935   -1.00000000    4.90999985    2.34999990
   13.04000092   -1.00000000    4.90999985    2.34999990
   13.04333401   -1.00000000    4.90999985    2.34999990
   13.04638958   -1.00000000    4.90999985    2.34999990
   13.05666733   -1.00000000    4.90999985    2.36999989
   13.05972195   -1.00000000    4.90999985    2.36999989
   13.06305599   -1.00000000    4.90999985    2.36999989
   13.06638908   -1.00000000    4.90999985    2.36999989
   13.06944466   -1.00000000    4.90999985    2.36999989
   13.07305527   -1.00000000    4.90999985    2.36999989
   13.07638836   -1.00000000    4.90999985    2.36999989
   13.07944393   -1.00000000    4.90999985    2.34999990
   13.08277798   -1.00000000    4.90999985    2.36999989
   13.08611107   -1.00000000    4.90999985    2.36999989
   13.08916664   -1.00000000    4.90999985    2.36999989
   13.09944439   -1.00000000    4.90999985    2.36999989
   13.10277843   -1.00000000    4.90999985    2.36999989
   13.10611153   -1.00000000    4.90999985    2.36999989
   13.10944462   -1.00000000    4.90999985    2.39000010
   13.11250019   -1.00000000    4.90999985    2.39000010
   13.11583328   -1.00000000    4.90999985    2.39000010
   13.11916637   -1.00000000    4.90999985    2.39000010
   13.12222195   -1.00000000    4.90999985    2.39000010
   13.12555599   -1.00000000    4.90999985    2.39000010
   13.12861156   -1.00000000    4.90999985    2.39000010
   13.13194466   -1.00000000    4.90999985    2.39000010
   13.14222240   -1.00000000    4.90999985    2.39000010
   13.14555550   -1.00000000    4.90999985    2.39000010
   13.14888859   -1.00000000    4.90999985    2.39000010
   13.15194416   -1.00000000    4.90999985    2.39000010
   13.15527725   -1.00000000    4.90999985    2.40000010
   13.15833282   -1.00000000    4.90999985    2.39000010
   13.16166592   -1.00000000    4.90999985    2.40000010
   13.16499996   -1.00000000    4.90999985    2.39000010
   13.16805553   -1.00000000    4.90999985    2.40000010
   13.17166710   -1.00000000    4.90999985    2.39000010
   13.17500019   -1.00000000    4.90999985    2.40000010
   13.18527794   -1.00000000    4.90999985    2.40000010
   13.18833351   -1.00000000    4.90999985    2.40000010
   13.19166660   -1.00000000    4.90999985    2.40000010
   13.19472218   -1.00000000    4.90999985    2.40000010
   13.19805527   -1.00000000    4.90999985    2.40000010
   13.20138836   -1.00000000    4.90999985    2.40000010
   13.20472240   -1.00000000    4.90999985    2.42000008
   13.20805550   -1.00000000    4.90999985    2.42000008
   13.21111107   -1.00000000    4.90999985    2.42000008
   13.21444416   -1.00000000    4.90999985    2.40000010
   13.21777725   -1.00000000    4.90999985    2.42000008
   13.22805500   -1.00000000    4.90999985    2.42000008
   13.23111057   -1.00000000    4.90999985    2.42000008
   13.23444462   -1.00000000    4.90999985    2.42000008
   13.23805618   -1.00000000    4.90999985    2.42000008
   13.24138927   -1.00000000    4.90999985    2.42000008
   13.24444485   -1.00000000    4.90999985    2.42000008
   13.24777794   -1.00000000    4.90999985    2.42000008
   13.25111103   -1.00000000    4.90999985    2.42000008
   13.25416660   -1.00000000    4.90999985    2.42000008
   13.25749969   -1.00000000    4.90999985    2.42000008
   13.26055527   -1.00000000    4.90999985    2.42000008
   13.27083302   -1.00000000    4.90999985    2.42000008
   13.27416611   -1.00000000    4.90999985    2.42000008
   13.27722168   -1.00000000    4.90999985    2.42000008
   13.28055573   -1.00000000    4.90999985    2.44000006
   13.28361130   -1.00000000    4.90999985    2.42000008
   13.28694534   -1.00000000    4.90999985    2.44000006
   13.29027843   -1.00000000    4.90999985    2.44000006
   13.29333401   -1.00000000    4.90999985    2.42000008
   13.29666710   -1.00000000    4.90999985    2.42000008
   13.30000019   -1.00000000    4.90999985    2.44000006
   13.30305576   -1.00000000    4.90999985    2.44000006
   13.31361103   -1.00000000    4.90999985    2.44000006
   13.31694412   -1.00000000    4.90999985    2.44000006
   13.31999969   -1.00000000    4.90999985    2.46000004
   13.32333374   -1.00000000    4.90999985    2.44000006
   13.32666683   -1.00000000    4.90999985    2.44000006
   13.32972240   -1.00000000    4.90999985    2.44000006
   13.33305550   -1.00000000    4.90999985    2.44000006
   13.33638859   -1.00000000    4.90999985    2.44000006
   13.33972168   -1.00000000    4.90999985    2.46000004
   13.34305477   -1.00000000    4.90999985    2.46000004
   13.34611034   -1.00000000    4.90999985    2.46000004
   13.35638905   -1.00000000    4.90999985    2.46000004
   13.35972214   -1.00000000    4.90999985    2.46000004
   13.36305618   -1.00000000    4.90999985    2.46000004
   13.36611176   -1.00000000    4.90999985    2.46000004
   13.36944485   -1.00000000    4.90999985    2.46000004
   13.37277794   -1.00000000    4.90999985    2.46000004
   13.37611103   -1.00000000    4.90999985    2.46000004
   13.37916660   -1.00000000    4.90999985    2.46000004
   13.38249969   -1.00000000    4.90999985    2.46000004
   13.38583279   -1.00000000    4.90999985    2.46000004
   13.38888836   -1.00000000    4.90999985    2.46000004
   13.39944458   -1.00000000    4.90999985    2.48000002
   13.40249920   -1.00000000    4.90999985    2.48000002
   13.40611076   -1.00000000    4.90999985    2.48000002
   13.40944386   -1.00000000    4.90999985    2.46000004
   13.41249943   -1.00000000    4.90999985    2.48000002
   13.41583252   -1.00000000    4.90999985    2.46000004
   13.41916656   -1.00000000    4.90999985    2.46000004
   13.42222214   -1.00000000    4.90999985    2.46000004
   13.42555618   -1.00000000    4.90999985    2.48000002
   13.42888927   -1.00000000    4.90999985    2.48000002
   13.43194485   -1.00000000    4.90999985    2.46000004
   13.44222260   -1.00000000    4.90999985    2.48000002
   13.44555569   -1.00000000    4.90999985    2.48000002
   13.44861126   -1.00000000    4.90999985    2.48000002
   13.45194435   -1.00000000    4.90999985    2.48000002
   13.45499992   87.35279846    4.90999985    2.48000002
   13.45833302  207.51699829    4.90999985    2.48000002
   13.46166611  185.17500305    4.90999985    2.48000002
   13.46472168  244.76199341    4.90999985    2.48000002
   14.77250004   -1.00000000   -1.00000000   -1.00000000
   15.04805565   -1.00000000   -1.00000000   -1.00000000
   15.26000023   -1.00000000   -1.00000000   -1.00000000
   15.42555618   72.55809784    4.90999985    2.71000004
   15.42888927  123.92900085    4.90999985    2.73000002
   15.43194485  128.49099731    4.90999985    2.71000004
   15.43527794  127.48000336    4.90999985    2.73000002
   15.43833351  130.69700623    4.90999985    2.75000000
   15.44166660  131.44900513    4.90999985    2.73000002
   15.44583321  131.44900513    4.90999985    2.73000002
   15.44999981  126.63200378    4.90999985    2.73000002
   15.45305538  130.81199646    4.90999985    2.73000002
   15.45638847  132.83700562    4.90999985    2.73000002
   15.45888901  131.88200378    4.90999985    2.73000002
   15.46027756  126.92199707    4.90999985    2.73000002
   15.46333313  126.59700012    4.90999985    2.73000002
   15.46666622  121.11599731    4.90999985    2.73000002
   15.46972179  126.79599762    4.90999985    2.73000002
   15.47305489  126.35299683    4.90999985    2.75000000
   15.47638798  126.91500092    4.90999985    2.73000002
   15.47944355  126.09100342    4.90999985    2.73000002
   15.48277760  128.71000671    4.90999985    2.73000002
   15.48861122  128.71000671    4.90999985    2.73000002
   15.49277782  117.73000336    4.90999985    2.73000002
   15.49611092  118.65599823    4.90999985    2.73000002
   15.49916649  119.17400360    4.90999985    2.73000002
   15.50249958  121.65100098    4.90999985    2.73000002
   15.50583363  122.68399811    4.90999985    2.73000002
   15.50888920  117.56099701    4.90999985    2.73000002
   15.51222229  124.36799622    4.90999985    2.73000002
   15.51527786  117.89399719    4.90999985    2.73000002
   15.51861095  126.97299957    4.90999985    2.73000002
   15.52194405  125.19400024    4.90999985    2.73000002
   15.52499962  120.50399780    4.90999985    2.73000002
   15.52555561  126.52100372    4.90999985    2.73000002
   15.53138828  126.52100372    4.90999985    2.73000002
   15.53555584  130.71499634    4.90999985    2.73000002
   15.53888893  125.04100037    4.90999985    2.73000002
   15.54222298  117.86000061    4.90999985    2.73000002
   15.54527855  124.51599884    4.90999985    2.73000002
   15.54861164  119.46299744    4.90999985    2.73000002
   15.55166721  122.46099854    4.90999985    2.73000002
   15.55500031  122.43699646    4.90999985    2.73000002
   15.55833340  123.98799896    4.90999985    2.73000002
   15.55888939  122.41200256    4.90999985    2.73000002
   15.56194496  122.19499969    4.90999985    2.73000002
   15.56500053  120.97399902    4.90999985    2.73000002
   15.56833363  127.40100098    4.90999985    2.73000002
   15.57444477  127.40100098    4.90999985    2.73000002
   15.57861137  119.48400116    4.90999985    2.73000002
   15.58166695  121.09700012    4.90999985    2.73000002
   15.58500004  120.96800232    4.90999985    2.73000002
   15.58805561  111.06900024    4.90999985    2.73000002
   15.59138870  118.77700043    4.90999985    2.73000002
   15.59222221  122.23000336    4.90999985    2.73000002
   15.59499931  118.80799866    4.90999985    2.73000002
   15.59833336  120.77100372    4.90999985    2.73000002
   15.60138893  116.37400055    4.90999985    2.73000002
   15.60472298  118.30200195    4.90999985    2.73000002
   15.60805607  118.19400024    4.90999985    2.73000002
   15.61111164  114.55699921    4.90999985    2.73000002
   15.61722279  114.55699921    4.90999985    2.75000000
   15.62138939  115.43900299    4.90999985    2.75000000
   15.62444496  122.83000183    4.90999985    2.73000002
   15.62555599  117.30100250    4.90999985    2.73000002
   15.62833309  113.33699799    4.90999985    2.73000002
   15.63166714  118.13099670    4.90999985    2.73000002
   15.63472176  116.11299896    4.90999985    2.73000002
   15.63805580  116.63200378    4.90999985    2.73000002
   15.64138889  119.52300262    4.90999985    2.73000002
   15.64444447  115.72299957    4.90999985    2.73000002
   15.64777756  111.55300140    4.90999985    2.75000000
   15.65083313  110.94999695    4.90999985    2.75000000
   15.65416622  119.17500305    4.90999985    2.73000002
   15.65999985  119.17500305    4.90999985    2.75000000
   15.66416645  114.78099823    4.90999985    2.73000002
   15.66750050  117.48100281    4.90999985    2.73000002
   15.67055607  118.46399689    4.90999985    2.73000002
   15.67388916  121.44400024    4.90999985    2.73000002
   15.67722225  116.69200134    4.90999985    2.75000000
   15.68027782  118.08499908    4.90999985    2.73000002
   15.68361092  117.35900116    4.90999985    2.75000000
   15.68666649  115.82399750    4.90999985    2.75000000
   15.69000053  115.24500275    4.90999985    2.75000000
   15.69222260  112.10700226    4.90999985    2.73000002
   15.69361115  116.74500275    4.90999985    2.75000000
   15.69694424  117.27300262    4.90999985    2.73000002
   15.70277786  117.27300262    4.90999985    2.73000002
   15.70694447  119.75900269    4.90999985    2.73000002
   15.71027756  121.65399933    4.90999985    2.73000002
   15.71361065  114.22899628    4.90999985    2.73000002
   15.71666622  113.45400238    4.90999985    2.73000002
   15.71999931  115.55300140    4.90999985    2.73000002
   15.72305489  121.08100128    4.90999985    2.75000000
   15.72555542  118.60099792    4.90999985    2.73000002
   15.72694397  112.89099884    4.90999985    2.73000002
   15.73027706  116.64700317    4.90999985    2.73000002
   15.73333359  115.84300232    4.90999985    2.73000002
   15.73666668  116.48400116    4.90999985    2.73000002
   15.73972225  117.41400146    4.90999985    2.73000002
   15.74583340  117.41400146    4.90999985    2.73000002
   15.75000000  112.58799744    4.90999985    2.73000002
   15.75305557  112.67299652    4.90999985    2.73000002
   15.75638866  112.05999756    4.90999985    2.73000002
   15.75888920  108.37500000    4.90999985    2.73000002
   15.76000023  112.72899628    4.90999985    2.75000000
   15.76333332  118.69100189    4.90999985    2.73000002
   15.76638889  117.04199982    4.90999985    2.75000000
   15.76972198  110.15899658    4.90999985    2.73000002
   15.77305508  113.28800201    4.90999985    2.73000002
   15.77611065  116.95700073    4.90999985    2.75000000
   15.77944374  116.15100098    4.90999985    2.73000002
   15.78277779  110.59400177    4.90999985    2.73000002
   15.78861141  110.59400177    4.90999985    2.73000002
   15.79277802  110.52700043    4.90999985    2.73000002
   15.79583359  112.44400024    4.90999985    2.73000002
   15.79916668  117.03500366    4.90999985    2.75000000
   15.80249977  114.84600067    4.90999985    2.73000002
   15.80555534  108.34100342    4.90999985    2.75000000
   15.80888939  113.34200287    4.90999985    2.73000002
   15.81222248  118.77799988    4.90999985    2.73000002
   15.81527805  111.87799835    4.90999985    2.73000002
   15.81861115  114.50900269    4.90999985    2.73000002
   15.82166672  118.86699677    4.90999985    2.75000000
   15.82499981  117.87699890    4.90999985    2.73000002
   15.82555580  115.26399994    4.90999985    2.73000002
   15.83138847  115.26399994    4.90999985    2.73000002
   15.83555508  116.18099976    4.90999985    2.73000002
   15.83888817  116.57900238    4.90999985    2.73000002
   15.84194374  116.06400299    4.90999985    2.75000000
   15.84527779  110.01300049    4.90999985    2.75000000
   15.84861088  112.55100250    4.90999985    2.73000002
   15.85166740  111.38899994    4.90999985    2.73000002
   15.85500050  110.04100037    4.90999985    2.75000000
   15.85833359  114.34700012    4.90999985    2.75000000
   15.85888958  111.55500031    4.90999985    2.73000002
   15.86194515  113.10800171    4.90999985    2.73000002
   15.86527824  112.21800232    4.90999985    2.73000002
   15.86833382  115.79599762    4.90999985    2.73000002
   15.87416649  115.79599762    4.90999985    2.75000000
   15.87833309  111.30400085    4.90999985    2.73000002
   15.88166714  112.24500275    4.90999985    2.73000002
   15.88500023  117.84200287    4.90999985    2.75000000
   15.88805580  116.16200256    4.90999985    2.73000002
   15.89138889  112.55999756    4.90999985    2.75000000
   15.89222240  115.35099792    4.90999985    2.75000000
   15.89499950  110.44499969    4.90999985    2.75000000
   15.89833355  112.13500214    4.90999985    2.75000000
   15.90138817  112.34700012    4.90999985    2.73000002
   15.90472221  112.29000092    4.90999985    2.75000000
   15.90805531  111.67800140    4.90999985    2.75000000
   15.91111088  109.06700134    4.90999985    2.75000000
   15.91722298  109.06700134    4.90999985    2.73000002
   15.92111111  108.97699738    4.90999985    2.75000000
   15.92444515  111.52799988    4.90999985    2.75000000
   15.92555618  107.88600159    4.90999985    2.73000002
   15.92805576  107.98100281    4.90999985    2.75000000
   15.93138885  107.09300232    4.90999985    2.75000000
   15.93444443  105.38099670    4.90999985    2.75000000
   15.93777752  108.52300262    4.90999985    2.75000000
   15.94111156  109.58000183    4.90999985    2.73000002
   15.94416714  107.77500153    4.90999985    2.73000002
   15.94750023  110.13899994    4.90999985    2.75000000
   15.95055580  114.17800140    4.90999985    2.75000000
   15.95388889  114.08999634    4.90999985    2.75000000
   15.96000004  114.08999634    4.90999985    2.75000000
   15.96416664  108.74900055    4.90999985    2.75000000
   15.96722221  102.75099945    4.90999985    2.75000000
   15.97055531  110.69300079    4.90999985    2.75000000
   15.97388840  107.03199768    4.90999985    2.73000002
   15.97694397  110.07299805    4.90999985    2.73000002
   15.98027706  110.32800293    4.90999985    2.73000002
   15.98333359  108.34500122    4.90999985    2.75000000
   15.98666668  106.62899780    4.90999985    2.75000000
   15.99000072  105.81900024    4.90999985    2.75000000
   15.99222279  108.34899902    4.90999985    2.75000000
   15.99361134  105.80100250    4.90999985    2.75000000
   15.99694443  107.28199768    4.90999985    2.75000000
   16.00277710  107.28199768    4.90999985    2.75000000
   16.00694466  106.81400299    4.90999985    2.75000000
   16.01027870  106.98500061    4.90999985    2.75000000
   16.01333427  110.71600342    4.90999985    2.75000000
   16.01666641  109.28600311    4.90999985    2.75000000
   16.01972198  109.26699829    4.90999985    2.75000000
   16.02305603  111.72899628    4.90999985    2.73000002
   16.02583313  110.76499939    4.90999985    2.75000000
   16.02666664  108.56800079    4.90999985    2.75000000
   16.03000069  113.55699921    4.90999985    2.73000002
   16.03305435  108.87899780    4.90999985    2.75000000
   16.03638840  107.64399719    4.90999985    2.75000000
   16.03972244  108.19300079    4.90999985    2.75000000
   16.04555511  108.19300079    4.90999985    2.75000000
   16.04972076  109.07800293    4.90999985    2.75000000
   16.05305481  118.18800354    4.90999985    2.75000000
   16.05611038  121.60299683    4.90999985    2.75000000
   16.05888748  114.91699982    4.90999985    2.75000000
   16.05972099  114.64499664    4.90999985    2.75000000
   16.06305504  112.05500031    4.90999985    2.75000000
   16.06611061  109.40200043    4.90999985    2.75000000
   16.06944466  106.79399872    4.90999985    2.75000000
   16.07277870  108.58499908    4.90999985    2.75000000
   16.07583427  107.10800171    4.90999985    2.75000000
   16.07916832  109.90100098    4.90999985    2.75000000
   16.08222389  112.46600342    4.90999985    2.75000000
   16.08861160  112.46600342    4.90999985    2.75000000
   16.09250069  109.22100067    4.90999985    2.75000000
   16.09583473  112.83999634    4.90999985    2.75000000
   16.09916687  116.58300018    4.90999985    2.75000000
   16.10222244  108.33799744    4.90999985    2.75000000
   16.10555649  109.74600220    4.90999985    2.75000000
   16.10888863  111.43099976    4.90999985    2.75000000
   16.11194420  110.04599762    4.90999985    2.75000000
   16.11527824  111.96299744    4.90999985    2.75000000
   16.11861038  110.23799896    4.90999985    2.75000000
   16.12166595  106.38300323    4.90999985    2.75000000
   16.12500000  112.49800110    4.90999985    2.75000000
   16.12583351  109.30200195    4.90999985    2.75000000
   16.13138962  109.30200195    4.90999985    2.75000000
   16.13555527  108.10500336    4.90999985    2.75000000
   16.13861084  107.57700348    4.90999985    2.75000000
   16.14194489  106.07499695    4.90999985    2.75000000
   16.14527702  109.88200378    4.90999985    2.75000000
   16.14833260  108.24600220    4.90999985    2.75000000
   16.15166664  109.84600067    4.90999985    2.75000000
   16.15472221  106.64199829    4.90999985    2.75000000
   16.15805435  110.96600342    4.90999985    2.75000000
   16.15916634  108.17500305    4.90999985    2.75000000
   16.16166687  108.05599976    4.90999985    2.75000000
   16.16499901  110.66500092    4.90999985    2.75000000
   16.16805458  106.89399719    4.90999985    2.75000000
   16.17416573  106.89399719    4.90999985    2.75000000
   16.17833328  106.01200104    4.90999985    2.75000000
   16.18166542  106.44699860    4.90999985    2.75000000
   16.18472099  103.17500305    4.90999985    2.75000000
   16.18805504  105.95700073    4.90999985    2.75000000
   16.19111061  107.54299927    4.90999985    2.75000000
   16.19249916  107.03800201    4.90999985    2.75000000
   16.19472122  111.23200226    4.90999985    2.75000000
   16.19805527  109.65699768    4.90999985    2.75000000
   16.20111275  104.73400116    4.90999985    2.75000000
   16.20444489  106.37899780    4.90999985    2.75000000
   16.20777893  107.04299927    4.90999985    2.75000000
   16.21083450  101.49900055    4.90999985    2.75000000
   16.21694565  101.49900055    4.90999985    2.75000000
   16.22111130  107.32399750    4.90999985    2.75000000
   16.22444534  102.68299866    4.90999985    2.75000000
   16.22583389  106.21700287    4.90999985    2.75000000
   16.22805595  106.10700226    4.90999985    2.75000000
   16.23139000  105.26799774    4.90999985    2.75000000
   16.23444557  103.13099670    4.90999985    2.75000000
   16.23777771  104.22699738    4.90999985    2.75000000
   16.24111176  107.08399963    4.90999985    2.75000000
   16.24416733  101.14700317    4.90999985    2.75000000
   16.24749947  107.30500031    4.90999985    2.75000000
   16.25083351  107.97100067    4.90999985    2.75000000
   16.25388908  105.19999695    4.90999985    2.75000000
   16.26000023  105.19999695    4.90999985    2.75000000
   16.26388931  102.88899994    4.90999985    2.75000000
   16.26722145  106.49900055    4.90999985    2.75000000
   16.27055550  105.68000031    4.90999985    2.75000000
   16.27361107  106.57800293    4.90999985    2.75000000
   16.27694511  101.47100067    4.90999985    2.76999998
   16.28027725  109.70099640    4.90999985    2.76999998
   16.28333282  105.40200043    4.90999985    2.75000000
   16.28666687  107.79100037    4.90999985    2.75000000
   16.28972244  105.15799713    4.90999985    2.75000000
   16.29249954  101.59300232    4.90999985    2.75000000
   16.29333305  102.54599762    4.90999985    2.75000000
   16.29666710   99.33139801    4.90999985    2.75000000
   16.30277634   99.33139801    4.90999985    2.76999998
   16.30694389  104.00000000    4.90999985    2.75000000
   16.30999947   99.48169708    4.90999985    2.75000000
   16.31333351  104.99099731    4.90999985    2.75000000
   16.31666756  102.94899750    4.90999985    2.75000000
   16.31972313  103.30100250    4.90999985    2.75000000
   16.32305717  104.34999847    4.90999985    2.75000000
   16.32583427  106.70899963    4.90999985    2.75000000
   16.32666779  108.78700256    4.90999985    2.75000000
   16.33000183  102.10700226    4.90999985    2.75000000
   16.33333397  105.57700348    4.90999985    2.75000000
   16.33638954  104.44599915    4.90999985    2.75000000
   16.33972359  103.80300140    4.90999985    2.75000000
   16.34555626  103.80300140    4.90999985    2.75000000
   16.34972191  102.63999939    4.90999985    2.75000000
   16.35305595  106.37100220    4.90999985    2.75000000
   16.35611153  105.07299805    4.90999985    2.75000000
   16.35916710  105.36599731    4.90999985    2.75000000
   16.35972214  101.06999969    4.90999985    2.75000000
   16.36305618  102.20700073    4.90999985    2.75000000
   16.36638832  104.68199921    4.90999985    2.75000000
   16.36944389  104.01000214    4.90999985    2.76999998
   16.37277794  106.63999939    4.90999985    2.75000000
   16.37583351   92.71710205    4.90999985    2.76999998
   16.37916756  100.57499695    4.90999985    2.76999998
   16.38249969  101.33799744    4.90999985    2.76999998
   16.38833237  101.33799744    4.90999985    2.75000000
   16.39249992   96.40039825    4.90999985    2.75000000
   16.39583397   97.46829987    4.90999985    2.75000000
   16.39888954  101.32499695    4.90999985    2.75000000
   16.40222168   97.04519653    4.90999985    2.75000000
   16.40555573  100.81199646    4.90999985    2.75000000
   16.40861130   99.86660004    4.90999985    2.75000000
   16.41194344  101.83999634    4.90999985    2.75000000
   16.41527748  100.01799774    4.90999985    2.75000000
   16.41833305  101.55100250    4.90999985    2.73000002
   16.42166519  101.22699738    4.90999985    2.75000000
   16.42472076  102.27400208    4.90999985    2.75000000
   16.42583275  101.62400055    4.90999985    2.75000000
   16.44638824  101.62400055    4.90999985    2.75000000
   16.45055580  115.30599976    4.90999985    2.75000000
   16.45388985  111.16600037    4.90999985    2.75000000
   16.45694542  120.01000214    4.90999985    2.75000000
   16.45916748  115.63200378    4.90999985    2.73000002
   16.46055603  114.48200226    4.90999985    2.75000000
   16.46389008  117.47899628    4.90999985    2.75000000
   16.46722221  121.45500183    4.90999985    2.75000000
   16.47027779  117.81300354    4.90999985    2.75000000
   16.47361183  118.93699646    4.90999985    2.75000000
   16.47666740  116.76799774    4.90999985    2.75000000
   16.48000145  119.95400238    4.90999985    2.75000000
   16.48333359  114.97699738    4.90999985    2.75000000
   16.48916626  114.97699738    4.90999985    2.75000000
   16.49333382  120.19000244    4.90999985    2.75000000
   16.49666786  123.42500305    4.90999985    2.75000000
   16.49972153  118.35500336    4.90999985    2.75000000
   16.50305557  117.18000031    4.90999985    2.75000000
   16.50638962  122.94400024    4.90999985    2.75000000
   16.50944519  123.92800140    4.90999985    2.75000000
   16.51277733  123.53299713    4.90999985    2.75000000
   16.51583290  125.47299957    4.90999985    2.75000000
   16.51916695  123.33300018    4.90999985    2.75000000
   16.52249908  120.25900269    4.90999985    2.75000000
   16.52555466  117.86100006    4.90999985    2.75000000
   16.52611160  117.41100311    4.90999985    2.75000000
   16.53194427  117.41100311    4.90999985    2.75000000
   16.53610992  122.08699799    4.90999985    2.75000000
   16.53944397  119.06400299    4.90999985    2.76999998
   16.54277802  114.88800049    4.90999985    2.75000000
   16.54583359  115.96800232    4.90999985    2.76999998
   16.54916573  119.97799683    4.90999985    2.75000000
   16.55222130  119.55500031    4.90999985    2.76999998
   16.55555534  118.88800049    4.90999985    2.76999998
   16.55888748  123.09200287    4.90999985    2.75000000
   16.55944443  122.29599762    4.90999985    2.75000000
   16.56250000  123.93900299    4.90999985    2.76999998
   16.56583214  123.11399841    4.90999985    2.75000000
   16.56888962  122.72100067    4.90999985    2.75000000
   16.57500076  122.72100067    4.90999985    2.75000000
   16.57916832  117.99400330    4.90999985    2.75000000
   16.58222389  124.98300171    4.90999985    2.75000000
   16.58555603  122.48999786    4.90999985    2.75000000
   16.58861160  120.87999725    4.90999985    2.75000000
   16.59194565  119.87300110    4.90999985    2.75000000
   16.59277916  119.18499756    4.90999985    2.75000000
   16.59555626  111.75399780    4.90999985    2.76999998
   16.59889030  115.91200256    4.90999985    2.75000000
   16.60194397  109.66899872    4.90999985    2.76999998
   16.60527802  120.02200317    4.90999985    2.75000000
   16.60833359  122.38700104    4.90999985    2.75000000
   16.61166763  124.99600220    4.90999985    2.75000000
   16.61777878  124.99600220    4.90999985    2.76999998
   16.62194443  127.03800201    4.90999985    2.75000000
   16.62500000  126.19100189    4.90999985    2.75000000
   16.62611198  126.53199768    4.90999985    2.75000000
   16.62888908  125.79799652    4.90999985    2.75000000
   16.63222313  123.91600037    4.90999985    2.75000000
   16.63527679  125.97399902    4.90999985    2.75000000
   16.63861084  119.44000244    4.90999985    2.76999998
   16.64166641  121.22200012    4.90999985    2.75000000
   16.64500046  121.90100098    4.90999985    2.75000000
   16.64833260  119.53199768    4.90999985    2.75000000
   16.65138817  128.59300232    4.90999985    2.76999998
   16.65472221  125.61499786    4.90999985    2.75000000
   16.66055489  125.61499786    4.90999985    2.75000000
   16.66472244  127.17299652    4.90999985    2.75000000
   16.66805458  123.77600098    4.90999985    2.76999998
   16.67111015  123.48999786    4.90999985    2.75000000
   16.67444420  123.18599701    4.90999985    2.75000000
   16.67777634  124.82199860    4.90999985    2.75000000
   16.68083191  129.19500732    4.90999985    2.75000000
   16.68416595  125.52799988    4.90999985    2.75000000
   16.68722153  125.54599762    4.90999985    2.75000000
   16.69055557  122.55799866    4.90999985    2.75000000
   16.69277763  122.72499847    4.90999985    2.76999998
   16.69416618  121.04699707    4.90999985    2.76999998
   16.69749832  123.16899872    4.90999985    2.75000000
   16.70333481  123.16899872    4.90999985    2.75000000
   16.70750046  131.16900635    4.90999985    2.76999998
   16.71083450  127.17400360    4.90999985    2.76999998
   16.71389008  131.76800537    4.90999985    2.76999998
   16.71722221  127.65200043    4.90999985    2.75000000
   16.72055626  126.53800201    4.90999985    2.76999998
   16.72361183  129.93800354    4.90999985    2.76999998
   16.72611237  124.03299713    4.90999985    2.76999998
   16.72722244  132.11399841    4.90999985    2.75000000
   16.73055649  127.61000061    4.90999985    2.76999998
   16.73361206  129.09100342    4.90999985    2.76999998
   16.73694420  132.10200500    4.90999985    2.76999998
   16.73999977  126.38400269    4.90999985    2.76999998
   16.74638939  126.38400269    4.90999985    2.75000000
   16.75027847  122.75900269    4.90999985    2.76999998
   16.75361061  125.77899933    4.90999985    2.75000000
   16.75694466  124.76100159    4.90999985    2.76999998
   16.75944519  129.40899658    4.90999985    2.75000000
   16.76055527  127.86799622    4.90999985    2.75000000
   16.76388931  126.17199707    4.90999985    2.75000000
   16.76694489  129.60299683    4.90999985    2.75000000
   16.77027702  129.92100525    4.90999985    2.76999998
   16.77333260  126.20200348    4.90999985    2.75000000
   16.77666664  128.66799927    4.90999985    2.76999998
   16.78000069  127.79299927    4.90999985    2.76999998
   16.78333282  123.74800110    4.90999985    2.76999998
   16.78916550  123.74800110    4.90999985    2.75000000
   16.79333305  127.66799927    4.90999985    2.76999998
   16.79638863  128.00700378    4.90999985    2.76999998
   16.79972076  129.85299683    4.90999985    2.75000000
   16.80305481  131.71699524    4.90999985    2.76999998
   16.80638885  128.22000122    4.90999985    2.75000000
   16.80972099  134.77499390    4.90999985    2.75000000
   16.81305504  129.90100098    4.90999985    2.75000000
   16.81611061  134.34300232    4.90999985    2.75000000
   16.81944466  129.36900330    4.90999985    2.75000000
   16.82250023  122.22699738    4.90999985    2.75000000
   16.82583427  127.88400269    4.90999985    2.75000000
   16.82638931  131.64599609    4.90999985    2.76999998
   16.83194542  131.64599609    4.90999985    2.75000000
   16.83611107  126.36499786    4.90999985    2.75000000
   16.83944511  131.82000732    4.90999985    2.75000000
   16.84250069  126.16699982    4.90999985    2.75000000
   16.84583473  129.67999268    4.90999985    2.75000000
   16.84916687  128.71200562    4.90999985    2.75000000
   16.85222244  130.43099976    4.90999985    2.75000000
   16.85555649  123.84700012    4.90999985    2.75000000
   16.85861206  122.10700226    4.90999985    2.75000000
   16.85972214  113.87200165    4.90999985    2.76999998
   16.86250114  127.01699829    4.90999985    2.75000000
   16.86555672  126.47599792    4.90999985    2.75000000
   16.86888885  131.58399963    4.90999985    2.73000002
   16.87472153  131.58399963    4.90999985    2.75000000
   16.87888908  128.53399658    4.90999985    2.76999998
   16.88222313  120.38700104    4.90999985    2.75000000
   16.88555527  122.85199738    4.90999985    2.75000000
   16.88861084  128.45500183    4.90999985    2.75000000
   16.89194489  132.53399658    4.90999985    2.75000000
   16.89305496  124.69599915    4.90999985    2.75000000
   16.89555550  124.32099915    4.90999985    2.75000000
   16.89861107  132.83900452    4.90999985    2.75000000
   16.90194321  126.40000153    4.90999985    2.73000002
   16.90527725  128.41700745    4.90999985    2.75000000
   16.90833282  133.86300659    4.90999985    2.75000000
   16.91166687  127.55999756    4.90999985    2.75000000
   16.91777802  127.55999756    4.90999985    2.75000000
   16.92194366  123.92299652    4.90999985    2.75000000
   16.92499924  128.91400146    4.90999985    2.75000000
   16.92638779  129.92700195    4.90999985    2.76999998
   16.92888832  133.62600708    4.90999985    2.75000000
   16.93194389  133.79800415    4.90999985    2.75000000
   16.93527603  128.63499451    4.90999985    2.75000000
   16.93861008  130.45399475    4.90999985    2.75000000
   16.94166565  130.25000000    4.90999985    2.75000000
   16.94499969  132.82400513    4.90999985    2.75000000
   16.94805527  133.20599365    4.90999985    2.75000000
   16.95138931  129.43099976    4.90999985    2.73000002
   16.95472336  124.39800262    4.90999985    2.75000000
   16.96055603  124.39800262    4.90999985    2.75000000
   16.96472359  128.52699280    4.90999985    2.75000000
   16.96777916  125.49800110    4.90999985    2.75000000
   16.97111130  122.99500275    4.90999985    2.75000000
   16.97444534  126.68000031    4.90999985    2.75000000
   16.97750092  123.91699982    4.90999985    2.75000000
   16.98083305  122.80400085    4.90999985    2.75000000
   16.98416710  126.94899750    4.90999985    2.75000000
   16.98722267  123.21700287    4.90999985    2.75000000
   16.99055672  128.39500427    4.90999985    2.75000000
   16.99305534  125.13700104    4.90999985    2.75000000
   16.99416733  126.31900024    4.90999985    2.75000000
   16.99722290  129.36900330    4.90999985    2.75000000
   17.00333405  129.36900330    4.90999985    2.75000000
   17.00749969  140.00199890    4.90999985    2.75000000
   17.01083374  127.42400360    4.90999985    2.75000000
   17.01388931  129.61900330    4.90999985    2.75000000
   17.01722145  134.24600220    4.90999985    2.75000000
   17.02055550  126.14600372    4.90999985    2.75000000
   17.02361107  125.73999786    4.90999985    2.75000000
   17.02638817  125.28500366    4.90999985    2.75000000
   17.02750015  128.45500183    4.90999985    2.75000000
   17.03055573  126.02700043    4.90999985    2.75000000
   17.03388786  123.25399780    4.90999985    2.76999998
   17.03722191  122.15399933    4.90999985    2.76999998
   17.04027748  128.80999756    4.90999985    2.75000000
   17.04611015  128.80999756    4.90999985    2.75000000
   17.05027771  130.58299255    4.90999985    2.75000000
   17.05360985  129.67900085    4.90999985    2.75000000
   17.05694389  131.23300171    4.90999985    2.75000000
   17.05972099  128.10099792    4.90999985    2.76999998
   17.06055450  127.24299622    4.90999985    2.75000000
   17.06361008  132.61399841    4.90999985    2.75000000
   17.06694603  132.98599243    4.90999985    2.75000000
   17.07027817  135.58399963    4.90999985    2.75000000
   17.07333374  126.39399719    4.90999985    2.75000000
   17.07666779  129.23800659    4.90999985    2.75000000
   17.07972336  120.38899994    4.90999985    2.75000000
   17.08305550  127.83899689    4.90999985    2.75000000
   17.08916664  127.83899689    4.90999985    2.75000000
   17.09333420  130.53700256    4.90999985    2.75000000
   17.09638977  125.72799683    4.90999985    2.75000000
   17.09972191  135.06500244    4.90999985    2.75000000
   17.10277748  147.39799500    4.90999985    2.76999998
   17.10611153  130.41200256    4.90999985    2.75000000
   17.10944557  138.10299683    4.90999985    2.75000000
   17.11250114  149.60699463    4.90999985    2.75000000
   17.11583328  150.31399536    4.90999985    2.75000000
   17.11916733  148.29299927    4.90999985    2.75000000
   17.12222290  135.83200073    4.90999985    2.75000000
   17.12555504  141.64999390    4.90999985    2.75000000
   17.12638855  152.61300659    4.90999985    2.75000000
   17.13194466  152.61300659    4.90999985    2.75000000
   17.13611031  128.34199524    4.90999985    2.75000000
   17.13916588  126.23200226    4.90999985    2.75000000
   17.14249992  131.08700562    4.90999985    2.75000000
   17.14583397  129.73300171    4.90999985    2.75000000
   17.14888954  124.98799896    4.90999985    2.75000000
   17.15222168  131.03700256    4.90999985    2.75000000
   17.15555573  127.47799683    4.90999985    2.75000000
   17.15861130  124.66300201    4.90999985    2.75000000
   17.15972137  135.88699341    4.90999985    2.75000000
   17.16222191  131.83700562    4.90999985    2.75000000
   17.16527748  132.04800415    4.90999985    2.75000000
   17.16860962  132.55700684    4.90999985    2.75000000
   17.17472076  132.55700684    4.90999985    2.75000000
   17.17888832  130.10899353    4.90999985    2.75000000
   17.18222237  134.02299500    4.90999985    2.75000000
   17.18527603  134.27799988    4.90999985    2.75000000
   17.18861008  129.47599792    4.90999985    2.75000000
   17.19194412  132.78500366    4.90999985    2.75000000
   17.19305420  141.97099304    4.90999985    2.75000000
   17.19555473  138.79100037    4.90999985    2.75000000
   17.19888878  129.48800659    4.90999985    2.75000000
   17.20194435  132.20500183    4.90999985    2.75000000
   17.20527840  127.21700287    4.90999985    2.75000000
   17.20833397  133.90100098    4.90999985    2.75000000
   17.21166801  126.64600372    4.90999985    2.75000000
   17.21750069  126.64600372    4.90999985    2.75000000
   17.22166634  127.83100128    4.90999985    2.75000000
   17.22500038  131.63099670    4.90999985    2.75000000
   17.22638893  127.17900085    4.90999985    2.75000000
   17.22861099  128.23500061    4.90999985    2.75000000
   17.23166656  125.19599915    4.90999985    2.75000000
   17.23500061  133.40800476    4.90999985    2.75000000
   17.23833275  134.23100281    4.90999985    2.75000000
   17.24138832  125.86299896    4.90999985    2.75000000
   17.24472237  133.92799377    4.90999985    2.75000000
   17.24805641  127.39600372    4.90999985    2.75000000
   17.25111198  125.17199707    4.90999985    2.75000000
   17.25444412  130.56500244    4.90999985    2.75000000
   17.26055527  130.56500244    4.90999985    2.75000000
   17.26472282  130.64900208    4.90999985    2.75000000
   17.26777840  126.58999634    4.90999985    2.75000000
   17.27111053  124.44499969    4.90999985    2.75000000
   17.27416611  132.27900696    4.90999985    2.75000000
   17.27750015  129.50900269    4.90999985    2.75000000
   17.28083229  128.32600403    4.90999985    2.75000000
   17.28388786  127.19899750    4.90999985    2.75000000
   17.28722191  125.48400116    4.90999985    2.75000000
   17.29055595  131.24299622    4.90999985    2.75000000
   17.29305458  127.37200165    4.90999985    2.75000000
   17.29416656  128.21400452    4.90999985    2.75000000
   17.29722214  120.80599976    4.90999985    2.75000000
   17.30333328  120.80599976    4.90999985    2.75000000
   17.30749893  123.38200378    4.90999985    2.73000002
   17.31055450  126.11900330    4.90999985    2.75000000
   17.31388855  130.52699280    4.90999985    2.75000000
   17.31722260  123.58699799    4.90999985    2.75000000
   17.32027817  125.46299744    4.90999985    2.75000000
   17.32361221  124.77300262    4.90999985    2.75000000
   17.32638931  129.42900085    4.90999985    2.75000000
   17.32722282  125.66300201    4.90999985    2.76999998
   17.33027840  125.27999878    4.90999985    2.75000000
   17.33361244  133.66999817    4.90999985    2.75000000
   17.33694458  128.45199585    4.90999985    2.75000000
   17.34000015  126.28299713    4.90999985    2.75000000
   17.34611130  126.28299713    4.90999985    2.75000000
   17.35027885  124.50199890    4.90999985    2.75000000
   17.35361099  125.76599884    4.90999985    2.75000000
   17.35666656  127.73899841    4.90999985    2.75000000
   17.35972214  125.59999847    4.90999985    2.75000000
   17.36055565  127.80200195    4.90999985    2.75000000
   17.36361122  125.80000305    4.90999985    2.75000000
   17.36694527  127.69599915    4.90999985    2.75000000
   17.37027740  128.74899292    4.90999985    2.75000000
   17.37333298  129.32499695    4.90999985    2.75000000
   17.37666702  126.49800110    4.90999985    2.75000000
   17.38000107  128.99899292    4.90999985    2.75000000
   17.38305473  133.81799316    4.90999985    2.75000000
   17.38888931  133.81799316    4.90999985    2.75000000
   17.39305496  120.66100311    4.90999985    2.73000002
   17.39638901  128.40600586    4.90999985    2.75000000
   17.39972115  134.19500732    4.90999985    2.75000000
   17.40277672  127.48100281    4.90999985    2.75000000
   17.40611076  131.30099487    4.90999985    2.75000000
   17.40916634  132.00700378    4.90999985    2.75000000
   17.41250038  126.65299988    4.90999985    2.75000000
   17.41583252  131.91900635    4.90999985    2.75000000
   17.41888809  121.65100098    4.90999985    2.75000000
   17.42222214  132.22000122    4.90999985    2.75000000
   17.42555428  127.05300140    4.90999985    2.75000000
   17.42666626  127.12999725    4.90999985    2.75000000
   17.43194389  127.12999725    4.90999985    2.75000000
   17.43610954  125.13800049    4.90999985    2.75000000
   17.43916512  124.76699829    4.90999985    2.75000000
   17.44249916  117.96399689    4.90999985    2.75000000
   17.46000099  113.09200287    4.90999985    2.73000002
   17.46250153  113.15399933    4.90999985    2.75000000
   17.46555710  127.07800293    4.90999985    2.75000000
   17.46888924  130.76100159    4.90999985    2.75000000
   17.47500038  130.76100159    4.90999985    2.75000000
   17.47888947  125.81199646    4.90999985    2.75000000
   17.48222351  122.35099792    4.90999985    2.75000000
   17.48555565  122.26399994    4.90999985    2.75000000
   17.48861122  126.02899933    4.90999985    2.75000000
   17.49194527  118.69000244    4.90999985    2.75000000
   17.49333382  119.76300049    4.90999985    2.75000000
   17.49583435  128.80400085    4.90999985    2.75000000
   17.49888992  123.11299896    4.90999985    2.75000000
   17.50222206  119.22799683    4.90999985    2.75000000
   17.50527763  124.93499756    4.90999985    2.73000002
   17.50861168  121.93699646    4.90999985    2.75000000
   17.51194382  123.62899780    4.90999985    2.75000000
   17.51777840  123.62899780    4.90999985    2.75000000
   17.52194405  124.85700226    4.90999985    2.75000000
   17.52499962  131.77699280    4.90999985    2.75000000
   17.52666664  129.13499451    4.90999985    2.73000002
   17.52861023  126.80100250    4.90999985    2.75000000
   17.53194427  115.44200134    4.90999985    2.75000000
   17.53527641  129.87800598    4.90999985    2.73000002
   17.53833199  129.05700684    4.90999985    2.75000000
   17.54166603  127.75399780    4.90999985    2.73000002
   17.54500008  121.39099884    4.90999985    2.75000000
   17.54805565  131.42300415    4.90999985    2.75000000
   17.55138779  128.14599609    4.90999985    2.75000000
   17.55472183  127.04100037    4.90999985    2.75000000
   17.56055450  127.04100037    4.90999985    2.75000000
   17.56472206  127.11900330    4.90999985    2.73000002
   17.56805611  126.92900085    4.90999985    2.73000002
   17.57111168  125.28700256    4.90999985    2.73000002
   17.57444572  119.01499939    4.90999985    2.75000000
   17.57750130  127.92700195    4.90999985    2.73000002
   17.58083344  134.53199768    4.90999985    2.75000000
   17.58416748  130.78100586    4.90999985    2.73000002
   17.58722305  128.69799805    4.90999985    2.75000000
   17.59055710  134.83799744    4.90999985    2.75000000
   17.59333420  132.03300476    4.90999985    2.75000000
   17.59388924  129.92999268    4.90999985    2.75000000
   17.59722328  132.16099548    4.90999985    2.75000000
   17.60333443  132.16099548    4.90999985    2.73000002
   17.60750008  126.20500183    4.90999985    2.73000002
   17.61083412  125.76300049    4.90999985    2.73000002
   17.61388969  124.38999939    4.90999985    2.73000002
   17.61722183  128.83299255    4.90999985    2.73000002
   17.62055588  127.67099762    4.90999985    2.75000000
   17.62361145  128.87699890    4.90999985    2.75000000
   17.62666702  132.64199829    4.90999985    2.75000000
   17.62750053  129.67500305    4.90999985    2.73000002
   17.63055611  128.85299683    4.90999985    2.73000002
   17.63388824  131.42500305    4.90999985    2.73000002
   17.63694382  129.59800720    4.90999985    2.73000002
   17.64027786  131.01300049    4.90999985    2.73000002
   17.64638901  131.01300049    4.90999985    2.73000002
   17.65027809  124.79699707    4.90999985    2.75000000
   17.65361023  126.09300232    4.90999985    2.75000000
   17.65694427  115.77700043    4.90999985    2.75000000
   17.65999985  120.66400146    4.90999985    2.73000002
   17.66055489  125.21700287    4.90999985    2.73000002
   17.66361046  126.02799988    4.90999985    2.73000002
   17.66694450  128.82000732    4.90999985    2.73000002
   17.67000008  127.02300262    4.90999985    2.73000002
   17.67333221  134.60899353    4.90999985    2.73000002
   17.67666626  133.17100525    4.90999985    2.73000002
   17.67972183  127.89600372    4.90999985    2.73000002
   17.68305397  134.30499268    4.90999985    2.73000002
   17.68916512  134.30499268    4.90999985    2.73000002
   17.69333267  132.18800354    4.90999985    2.73000002
   17.69388771  130.27299500    4.90999985    2.73000002
   17.69694328  132.59399414    4.90999985    2.73000002
   17.70027924  132.04299927    4.90999985    2.73000002
   17.70333481  135.51699829    4.90999985    2.75000000
   17.70666695  129.03999329    4.90999985    2.73000002
   17.71000099  139.55000305    4.90999985    2.73000002
   17.71305656  136.47599792    4.90999985    2.73000002
   17.71638870  131.15400696    4.90999985    2.75000000
   17.71972275  135.19000244    4.90999985    2.73000002
   17.72277832  130.43400574    4.90999985    2.73000002
   17.72611237  125.83300018    4.90999985    2.75000000
   17.72666740  125.18199921    4.90999985    2.75000000
   17.73194504  125.18199921    4.90999985    2.73000002
   17.73611069  120.27300262    4.90999985    2.73000002
   17.73944473  123.28600311    4.90999985    2.73000002
   17.74250031  128.79200745    4.90999985    2.73000002
   17.74583435  129.80799866    4.90999985    2.75000000
   17.74888992  129.89999390    4.90999985    2.73000002
   17.75222206  126.79799652    4.90999985    2.73000002
   17.75555611  131.62699890    4.90999985    2.73000002
   17.75861168  132.45100403    4.90999985    2.73000002
   17.76000023  129.88600159    4.90999985    2.73000002
   17.76250076  125.58499908    4.90999985    2.73000002
   17.76555634  126.28399658    4.90999985    2.75000000
   17.76888847  130.48800659    4.90999985    2.73000002
   17.77472115  130.48800659    4.90999985    2.73000002
   17.77888870  133.64900208    4.90999985    2.73000002
   17.78222275  135.08500671    4.90999985    2.73000002
   17.78527641  128.81399536    4.90999985    2.73000002
   17.78861046  120.03700256    4.90999985    2.73000002
   17.79194450  127.65799713    4.90999985    2.73000002
   17.79333305  130.04600525    4.90999985    2.75000000
   17.79555511  125.65399933    4.90999985    2.73000002
   17.79861069  127.91100311    4.90999985    2.75000000
   17.80194283  120.87300110    4.90999985    2.75000000
   17.80527687  128.87800598    4.90999985    2.73000002
   17.80833244  128.83999634    4.90999985    2.73000002
   17.81166649  123.21900177    4.90999985    2.73000002
   17.81750107  123.21900177    4.90999985    2.73000002
   17.82166672  128.65299988    4.90999985    2.73000002
   17.82500076  130.40499878    4.90999985    2.73000002
   17.82666779  129.65199280    4.90999985    2.73000002
   17.82888985  128.21600342    4.90999985    2.75000000
   17.83194542  124.56800079    4.90999985    2.73000002
   17.83527756  126.32299805    4.90999985    2.73000002
   17.83861160  130.27600098    4.90999985    2.73000002
   17.84166718  130.81599426    4.90999985    2.73000002
   17.84500122  128.32099915    4.90999985    2.73000002
   17.84805679  124.19000244    4.90999985    2.73000002
   17.85138893  129.77999878    4.90999985    2.73000002
   17.85472298  132.26400757    4.90999985    2.73000002
   17.86055565  132.26400757    4.90999985    2.73000002
   17.86472321  131.19700623    4.90999985    2.73000002
   17.86777878  131.61700439    4.90999985    2.73000002
   17.87111092  131.56399536    4.90999985    2.73000002
   17.87444496  125.35399628    4.90999985    2.73000002
   17.87750053  129.50199890    4.90999985    2.73000002
   17.88083267  124.90000153    4.90999985    2.71000004
   17.88388824  126.73000336    4.90999985    2.73000002
   17.88722229  123.99700165    4.90999985    2.73000002
   17.89055634  123.11199951    4.90999985    2.73000002
   17.89333344  125.21299744    4.90999985    2.73000002
   17.89416695  127.58999634    4.90999985    2.73000002
   17.89722252  129.25599670    4.90999985    2.73000002
   17.90333366  129.25599670    4.90999985    2.73000002
   17.90749931  131.62500000    4.90999985    2.73000002
   17.91055489  122.88600159    4.90999985    2.73000002
   17.91388893  131.82899475    4.90999985    2.73000002
   17.91722107  128.03399658    4.90999985    2.73000002
   17.92027664  129.82099915    4.90999985    2.73000002
   17.92361069  128.44200134    4.90999985    2.73000002
   17.92666626  133.19700623    4.90999985    2.71000004
   17.92722130  129.24000549    4.90999985    2.73000002
   17.93027687  130.63499451    4.90999985    2.73000002
   17.93361092  123.37699890    4.90999985    2.73000002
   17.93694305  126.86599731    4.90999985    2.71000004
   17.93999863  130.88600159    4.90999985    2.71000004
   17.94610977  130.88600159    4.90999985    2.71000004
   17.95027924  121.72799683    4.90999985    2.71000004
   17.95361137  122.55400085    4.90999985    2.73000002
   17.95666695  125.94400024    4.90999985    2.73000002
   17.96000099  123.37500000    4.90999985    2.73000002
   17.96055603  122.02200317    4.90999985    2.71000004
   17.96361160  123.68800354    4.90999985    2.71000004
   17.96694565  123.36399841    4.90999985    2.73000002
   17.97027779  119.09600067    4.90999985    2.73000002
   17.97333336  131.03500366    4.90999985    2.71000004
   17.97666740  126.08300018    4.90999985    2.73000002
   17.97972298  126.60299683    4.90999985    2.71000004
   17.98305511  132.06500244    4.90999985    2.71000004
   17.98888969  132.06500244    4.90999985    2.71000004
   17.99305534  129.41200256    4.90999985    2.73000002
   17.99361229  127.98799896    4.90999985    2.73000002
   17.99694443  125.64399719    4.90999985    2.71000004
   18.00027847  130.13499451    4.90999985    2.71000004
   18.00333405  126.71900177    4.90999985    2.71000004
   18.00666618  134.57699585    4.90999985    2.73000002
   18.00972176  129.14999390    4.90999985    2.71000004
   18.01305580  125.47499847    4.90999985    2.71000004
   18.01638794  129.22599792    4.90999985    2.71000004
   18.01944351  128.95700073    4.90999985    2.71000004
   18.02277756  129.52000427    4.90999985    2.71000004
   18.02611160  122.61599731    4.90999985    2.71000004
   18.02694511  126.88400269    4.90999985    2.71000004
   18.03194427  126.88400269    4.90999985    2.71000004
   18.03610992  127.26999664    4.90999985    2.71000004
   18.03916550  132.67199707    4.90999985    2.71000004
   18.04249954  136.38200378    4.90999985    2.71000004
   18.04555511  134.57600403    4.90999985    2.69000006
   18.04888916  126.04399872    4.90999985    2.71000004
   18.05222130  125.88999939    4.90999985    2.71000004
   18.05555534  126.01300049    4.90999985    2.69000006
   18.05861092  130.27999878    4.90999985    2.71000004
   18.06027794  127.17900085    4.90999985    2.71000004
   18.06222153  126.70400238    4.90999985    2.71000004
   18.06555557  127.61199951    4.90999985    2.69000006
   18.06861115  126.73699951    4.90999985    2.71000004
   18.07472229  126.73699951    4.90999985    2.71000004
   18.07888985  130.80299377    4.90999985    2.71000004
   18.08194542  126.18399811    4.90999985    2.71000004
   18.08527756  125.95600128    4.90999985    2.71000004
   18.08861160  129.08000183    4.90999985    2.71000004
   18.09166718  140.11599731    4.90999985    2.71000004
   18.09361267  126.35399628    4.90999985    2.71000004
   18.09555626  129.79600525    4.90999985    2.71000004
   18.09861183  135.28900146    4.90999985    2.71000004
   18.10194397  127.76399994    4.90999985    2.71000004
   18.10527802  126.56300354    4.90999985    2.71000004
   18.10833359  127.39900208    4.90999985    2.71000004
   18.11166763  132.73800659    4.90999985    2.71000004
   18.11750031  132.73800659    4.90999985    2.71000004
   18.12166595  128.37899780    4.90999985    2.71000004
   18.12500000  132.66099548    4.90999985    2.71000004
   18.12694550  129.61199951    4.90999985    2.71000004
   18.12861061  136.05999756    4.90999985    2.71000004
   18.13166618  126.39499664    4.90999985    2.71000004
   18.13500023  128.99800110    4.90999985    2.71000004
   18.13833237  129.64999390    4.90999985    2.71000004
   18.14138794  138.03500366    4.90999985    2.71000004
   18.14472198  125.67800140    4.90999985    2.71000004
   18.14805603  133.08000183    4.90999985    2.71000004
   18.15111160  132.86199951    4.90999985    2.71000004
   18.15444374  131.18099976    4.90999985    2.71000004
   18.16027832  131.18099976    4.90999985    2.71000004
   18.16444397  132.96699524    4.90999985    2.71000004
   18.16777802  130.61900330    4.90999985    2.71000004
   18.17083359  132.08900452    4.90999985    2.71000004
   18.17416573  132.71699524    4.90999985    2.71000004
   18.17749977  122.03700256    4.90999985    2.71000004
   18.18055534  131.41900635    4.90999985    2.71000004
   18.18388748  133.85600281    4.90999985    2.71000004
   18.18722153  134.16400146    4.90999985    2.71000004
   18.19027710  126.21499634    4.90999985    2.71000004
   18.19361115  128.94000244    4.90999985    2.71000004
   18.19416618  134.71299744    4.90999985    2.71000004
   18.19722176  129.09899902    4.90999985    2.71000004
   18.20333481  129.09899902    4.90999985    2.71000004
   18.20722389  127.40899658    4.90999985    2.71000004
   18.21055603  115.14299774    4.90999985    2.71000004
   18.21389008  127.93399811    4.90999985    2.71000004
   18.21694565  126.14499664    4.90999985    2.69000006
   18.22027779  123.24299622    4.90999985    2.69000006
   18.22361183  125.61699677    4.90999985    2.71000004
   18.22666740  134.81399536    4.90999985    2.71000004
   18.22750092  127.81199646    4.90999985    2.69000006
   18.23027802  128.59700012    4.90999985    2.71000004
   18.23361206  127.93299866    4.90999985    2.71000004
   18.23694420  128.38499451    4.90999985    2.73000002
   18.23999977  120.74500275    4.90999985    2.71000004
   18.24611092  120.74500275    4.90999985    2.71000004
   18.25027847  135.34599304    4.90999985    2.71000004
   18.25333405  132.60400391    4.90999985    2.71000004
   18.25666618  139.22300720    4.90999985    2.71000004
   18.26000023  159.69400024    4.90999985    2.71000004
   18.26083374  149.13200378    4.90999985    2.71000004
   18.26361084  161.13699341    4.90999985    2.71000004
   18.26666641  156.85800171    4.90999985    2.69000006
   18.27000046  150.70500183    4.90999985    2.71000004
   18.27305603  137.30999756    4.90999985    2.69000006
   18.27638817  127.41600037    4.90999985    2.69000006
   18.27972221  124.60299683    4.90999985    2.71000004
   18.28277779  126.55000305    4.90999985    2.71000004
   18.28888893  126.55000305    4.90999985    2.71000004
   18.29305458  130.65699768    4.90999985    2.71000004
   18.29416656  128.43899536    4.90999985    2.71000004
   18.29694366  131.44000244    4.90999985    2.69000006
   18.29999924  129.33700562    4.90999985    2.69000006
   18.30333328  134.37399292    4.90999985    2.69000006
   18.30638885  138.68600464    4.90999985    2.69000006
   18.30972099  130.30499268    4.90999985    2.69000006
   18.31305504  128.21899414    4.90999985    2.71000004
   18.31611061  127.31300354    4.90999985    2.69000006
   18.31944466  129.13800049    4.90999985    2.71000004
   18.32277870  130.22399902    4.90999985    2.71000004
   18.32583427  135.35400391    4.90999985    2.69000006
   18.32750130  131.97399902    4.90999985    2.69000006
   18.33166695  131.97399902    4.90999985    2.69000006
   18.33583450  131.25399780    4.90999985    2.69000006
   18.33916664  133.29100037    4.90999985    2.69000006
   18.34250069  134.28399658    4.90999985    2.69000006
   18.34555626  140.54600525    4.90999985    2.69000006
   18.34889030  131.92599487    4.90999985    2.69000006
   18.35194397  136.28399658    4.90999985    2.71000004
   18.35527802  126.60800171    4.90999985    2.71000004
   18.35861206  124.02200317    4.90999985    2.69000006
   18.36083412  130.27000427    4.90999985    2.71000004
   18.36194420  125.49700165    4.90999985    2.71000004
   18.36527824  126.67600250    4.90999985    2.69000006
   18.36861038  128.70899963    4.90999985    2.69000006
   18.37472153  128.70899963    4.90999985    2.71000004
   18.37861061  128.24099731    4.90999985    2.71000004
   18.38194466  132.21699524    4.90999985    2.71000004
   18.38527679  129.30799866    4.90999985    2.69000006
   18.38861084  124.08100128    4.90999985    2.71000004
   18.39166641  126.75299835    4.90999985    2.69000006
   18.39416695  134.57899475    4.90999985    2.69000006
   18.39555550  126.68900299    4.90999985    2.69000006
   18.39861107  126.45999908    4.90999985    2.71000004
   18.40194321  128.07200623    4.90999985    2.69000006
   18.40499878  128.86500549    4.90999985    2.69000006
   18.40833282  131.79800415    4.90999985    2.69000006
   18.41166687  134.90299988    4.90999985    2.69000006
   18.41749954  134.90299988    4.90999985    2.71000004
   18.42166519  124.49500275    4.90999985    2.71000004
   18.42472076  126.52400208    4.90999985    2.69000006
   18.42749977  128.71099854    4.90999985    2.69000006
   18.42860985  129.47599792    4.90999985    2.69000006
   18.43166542  129.24499512    4.90999985    2.69000006
   18.43499947  127.12200165    4.90999985    2.69000006
   18.43805504  128.82299805    4.90999985    2.71000004
   18.44138718  126.16400146    4.90999985    2.69000006
   18.44472122  130.68899536    4.90999985    2.69000006
   18.44777679  134.03700256    4.90999985    2.71000004
   18.45111275  138.00399780    4.90999985    2.69000006
   18.45444489  132.70100403    4.90999985    2.69000006
   18.46027946  132.70100403    4.90999985    2.69000006
   18.47861099  128.03799438    4.90999985    2.69000006
   18.48194504  160.04499817    4.90999985    2.69000006
   18.48500061  141.28999329    4.90999985    2.69000006
   18.48833275  134.23599243    4.90999985    2.69000006
   18.49166679  133.23100281    4.90999985    2.69000006
   18.49472237  143.17700195    4.90999985    2.69000006
   18.49805641  143.14599609    4.90999985    2.69000006
   18.50333405  143.14599609    4.90999985    2.69000006
   18.50749969  135.19700623    4.90999985    2.69000006
   18.51083374  132.53700256    4.90999985    2.69000006
   18.51166725  133.72599792    4.90999985    2.69000006
   18.51444435  134.64199829    4.90999985    2.69000006
   18.51777840  133.32299805    4.90999985    2.67000008
   18.52083397  137.99200439    4.90999985    2.69000006
   18.52416611  124.78500366    4.90999985    2.69000006
   18.52722168  121.16100311    4.90999985    2.69000006
   18.53055573  149.57000732    4.90999985    2.69000006
   18.53388786  139.78799438    4.90999985    2.69000006
   18.53694344  135.71200562    4.90999985    2.69000006
   18.54027748  138.27099609    4.90999985    2.69000006
   18.54611015  138.27099609    4.90999985    2.69000006
   18.55027771  133.74899292    4.90999985    2.69000006
   18.55360985  135.30599976    4.90999985    2.67000008
   18.55694389  132.98300171    4.90999985    2.67000008
   18.55999947  129.59899902    4.90999985    2.69000006
   18.56333351  136.35600281    4.90999985    2.69000006
   18.56638718  129.35000610    4.90999985    2.69000006
   18.56972313  133.46699524    4.90999985    2.69000006
   18.57305717  131.96000671    4.90999985    2.69000006
   18.57611275  138.66499329    4.90999985    2.69000006
   18.57833481  134.61599731    4.90999985    2.69000006
   18.58000183  132.25000000    4.90999985    2.69000006
   18.58333397  138.28799438    4.90999985    2.67000008
   18.58916664  138.28799438    4.90999985    2.67000008
   18.59333420  130.39500427    4.90999985    2.69000006
   18.59638977  139.13699341    4.90999985    2.69000006
   18.59972191  132.02799988    4.90999985    2.69000006
   18.60277748  136.22900391    4.90999985    2.69000006
   18.60611153  138.96200562    4.90999985    2.67000008
   18.60944557  131.46099854    4.90999985    2.67000008
   18.61166763  143.52999878    4.90999985    2.67000008
   18.61305618  142.41700745    4.90999985    2.67000008
   18.61638832  135.66499329    4.90999985    2.69000006
   18.61944389  141.96400452    4.90999985    2.67000008
   18.62277794  144.78599548    4.90999985    2.69000006
   18.62583351  136.30599976    4.90999985    2.69000006
   18.63194466  136.30599976    4.90999985    2.67000008
   18.63611031  145.49800110    4.90999985    2.67000008
   18.63916588  143.59199524    4.90999985    2.67000008
   18.64249992  142.91000366    4.90999985    2.67000008
   18.64500046  141.77299500    4.90999985    2.67000008
   18.64611053  127.88700104    4.90999985    2.67000008
   18.64944458  160.12300110    4.90999985    2.67000008
   18.65250015  141.89900208    4.90999985    2.67000008
   18.65583229  143.11300659    4.90999985    2.69000006
   18.65888786  162.89300537    4.90999985    2.67000008
   18.66222191  161.14599609    4.90999985    2.67000008
   18.66555595  153.56900024    4.90999985    2.67000008
   18.66860962  155.35099792    4.90999985    2.67000008
   18.67472076  155.35099792    4.90999985    2.67000008
   18.67888832  172.42599487    4.90999985    2.67000008
   18.68222237  165.15400696    4.90999985    2.67000008
   18.68527603  197.41999817    4.90999985    2.67000008
   18.68861008  185.32899475    4.90999985    2.67000008
   18.69194412  171.14900208    4.90999985    2.67000008
   18.69499969  171.67700195    4.90999985    2.69000006
   18.69833183  182.94000244    4.90999985    2.67000008
   18.70138931  213.24600220    4.90999985    2.67000008
   18.70499992  195.63900757    4.90999985    2.67000008
   18.70833397  163.10499573    4.90999985    2.67000008
   18.71138954  168.57000732    4.90999985    2.67000008
   18.71194458  192.25300598    4.90999985    2.67000008
   18.71750069  192.25300598    4.90999985    2.66000009
   18.72166634  173.55900574    4.90999985    2.66000009
   18.72500038  174.60400391    4.90999985    2.66000009
   18.72833443  175.20899963    4.90999985    2.66000009
   18.73139000  164.27099609    4.90999985    2.67000008
   18.73472214  160.38400269    4.90999985    2.67000008
   18.73805618  179.88900757    4.90999985    2.67000008
   18.74111176  170.87100220    4.90999985    2.66000009
   18.74444389  190.04600525    4.90999985    2.67000008
   18.74527740  171.15499878    4.90999985    2.67000008
   18.74805641  174.35699463    4.90999985    2.67000008
   18.75138855  174.89500427    4.90999985    2.67000008
   18.75444412  174.19200134    4.90999985    2.66000009
   18.76055527  174.19200134    4.90999985    2.66000009
   18.76444435  169.82699585    4.90999985    2.66000009
   18.76777840  152.35099792    4.90999985    2.66000009
   18.77111053  173.50399780    4.90999985    2.66000009
   18.77416611  164.37500000    4.90999985    2.66000009
   18.77750015  161.94799805    4.90999985    2.66000009
   18.77861023  172.83700562    4.90999985    2.67000008
   18.78111076  160.02099609    4.90999985    2.66000009
   18.78444481  172.45700073    4.90999985    2.67000008
   18.78750038  165.80999756    4.90999985    2.67000008
   18.79083252  178.58500671    4.90999985    2.67000008
   18.79416656  165.30799866    4.90999985    2.66000009
   18.79722214  163.28599548    4.90999985    2.66000009
   18.80333328  163.28599548    4.90999985    2.67000008
   18.80749893  156.91499329    4.90999985    2.67000008
   18.81055450  166.76300049    4.90999985    2.66000009
   18.81194305  169.20799255    4.90999985    2.66000009
   18.81416512  166.10800171    4.90999985    2.66000009
   18.81750107  160.35299683    4.90999985    2.66000009
   18.82055664  154.16499329    4.90999985    2.66000009
   18.82389069  145.05700684    4.90999985    2.66000009
   18.82722282  169.59599304    4.90999985    2.66000009
   18.83027840  164.04699707    4.90999985    2.66000009
   18.83361244  155.87899780    4.90999985    2.66000009
   18.83666801  176.84500122    4.90999985    2.66000009
   18.84000015  161.75799561    4.90999985    2.66000009
   18.84611130  161.75799561    4.90999985    2.66000009
   18.85027885  168.64799500    4.90999985    2.66000009
   18.85361099  155.15600586    4.90999985    2.66000009
   18.85666656  148.53799438    4.90999985    2.66000009
   18.86000061  157.40800476    4.90999985    2.66000009
   18.86305618  163.47599792    4.90999985    2.66000009
   18.86638832  151.18099976    4.90999985    2.66000009
   18.86972237  155.51300049    4.90999985    2.67000008
   18.87277794  154.91200256    4.90999985    2.66000009
   18.87611198  143.79299927    4.90999985    2.66000009
   18.87861061  146.33900452    4.90999985    2.66000009
   18.87972260  141.96299744    4.90999985    2.66000009
   18.88305473  159.92500305    4.90999985    2.66000009
   18.88888931  159.92500305    4.90999985    2.66000009
   18.89305496  154.56500244    4.90999985    2.66000009
   18.89638901  151.65800476    4.90999985    2.66000009
   18.89944458  151.50999451    4.90999985    2.66000009
   18.90277672  153.40100098    4.90999985    2.66000009
   18.90611076  172.85600281    4.90999985    2.66000009
   18.90916634  169.85600281    4.90999985    2.66000009
   18.91194344  178.54200745    4.90999985    2.66000009
   18.91277695  182.14799500    4.90999985    2.66000009
   18.91611099  203.45199585    4.90999985    2.66000009
   18.91916656  200.12100220    4.90999985    2.66000009
   18.92249870  207.22200012    4.90999985    2.66000009
   18.92583275  223.80900574    4.90999985    2.66000009
   18.93194389  223.80900574    4.90999985    2.66000009
   18.93583298  189.20199585    4.90999985    2.66000009
   18.93916512  204.80799866    4.90999985    2.66000009
   18.94249916  193.85899353    4.90999985    2.66000009
   18.94527626  193.48500061    4.90999985    2.64000010
   18.94610977  180.10200500    4.90999985    2.66000009
   18.94944382  165.19000244    4.90999985    2.66000009
   18.95250130  181.85699463    4.90999985    2.66000009
   18.95583344  186.90400696    4.90999985    2.66000009
   18.95916748  186.45199585    4.90999985    2.66000009
   18.96222305  185.36900330    4.90999985    2.66000009
   18.96555710  182.86000061    4.90999985    2.66000009
   18.96861076  198.69400024    4.90999985    2.66000009
   18.97472191  198.69400024    4.90999985    2.66000009
   18.97888947  195.43800354    4.90999985    2.66000009
   18.98194504  208.22700500    4.90999985    2.66000009
   18.98527718  222.64399719    4.90999985    2.66000009
   18.98861122  190.09199524    4.90999985    2.66000009
