    HOUR (UT)   FLARE FACTOR    SKY TESTER    SUN TESTER
   17.42860985   -1.00000000   -1.00000000   -1.00000000
   17.47138977  120.37599945    1.16999996    2.71000004
   17.47444534  117.72899628    1.14999998    2.71000004
   17.47777748  114.56199646    1.16999996    2.71000004
   17.48111153  119.64800262    1.16999996    2.71000004
   17.48416710  120.31999969    1.16999996    2.71000004
   17.48750114  119.41300201    1.21000004    2.71000004
   17.49166679  119.41300201    1.23000002    2.71000004
   17.49583435  118.66500092    1.23000002    2.71000004
   17.49888992  124.06800079    1.23000002    2.71000004
   17.50222206  119.27799988    1.23000002    2.71000004
   17.50472260  118.07900238    1.23000002    2.71000004
   17.50583267  115.63200378    1.23000002    2.71000004
   17.50916672  118.40399933    1.23000002    2.71000004
   17.51222229  120.26899719    1.21000004    2.71000004
   17.51555634  116.47000122    1.21000004    2.71000004
   17.51888847  114.51100159    1.21000004    2.73000002
   17.52194405  117.42700195    1.21000004    2.71000004
   17.52527809  118.56500244    1.19000006    2.71000004
   17.52861023  117.51200104    1.19000006    2.71000004
   17.53444481  117.51200104    1.19000006    2.71000004
   17.53861046  113.06999969    1.19000006    2.71000004
   17.54166603  119.61399841    1.16999996    2.71000004
   17.54500008  118.07700348    1.16999996    2.73000002
   17.54833221  114.38200378    1.16999996    2.73000002
   17.55138779  118.35700226    1.16999996    2.71000004
   17.55472183  117.58699799    1.16999996    2.71000004
   17.55805397  118.12400055    1.16999996    2.73000002
   17.56110954  117.35600281    1.16999996    2.73000002
   17.56444359  113.65899658    1.16999996    2.73000002
   17.56750107  123.41799927    1.14999998    2.71000004
   17.57083511  115.48200226    1.13000000    2.73000002
   17.57139015  117.99299622    1.13000000    2.73000002
   17.57722282  117.99299622    1.13000000    2.75000000
   17.58139038  116.64499664    1.13000000    2.75000000
   17.58444595  116.48300171    1.14999998    2.73000002
   17.58777809  112.90699768    1.14999998    2.73000002
   17.59111214  114.37300110    1.14999998    2.73000002
   17.59416771  116.96499634    1.14999998    2.73000002
   17.59749985  115.33399963    1.14999998    2.73000002
   17.60055542  114.08399963    1.14999998    2.73000002
   17.60388947  119.16799927    1.16999996    2.73000002
   17.60472298  111.21299744    1.16999996    2.73000002
   17.60777855  112.15100098    1.19000006    2.71000004
   17.61083412  114.52799988    1.21000004    2.71000004
   17.61416626  113.39600372    1.21000004    2.71000004
   17.62000084  113.39600372    1.21000004    2.71000004
   17.62416649  114.20400238    1.19000006    2.71000004
   17.62750053  114.28099823    1.19000006    2.73000002
   17.63083267  115.62200165    1.19000006    2.73000002
   17.63388824  113.85399628    1.19000006    2.73000002
   17.63722229  111.50000000    1.16999996    2.73000002
   17.63805580  113.44799805    1.16999996    2.71000004
   17.64083290  116.13800049    1.16999996    2.71000004
   17.64388847  108.07599640    1.16999996    2.73000002
   17.64722252  111.80999756    1.14999998    2.73000002
   17.65027809  111.26999664    1.14999998    2.75000000
   17.65361023  114.39600372    1.14999998    2.73000002
   17.65694427  111.55500031    1.16999996    2.73000002
   17.66277695  111.55500031    1.19000006    2.73000002
   17.66694450  111.18800354    1.19000006    2.73000002
   17.67027664  114.76300049    1.19000006    2.73000002
   17.67138863  110.41400146    1.21000004    2.73000002
   17.67388916  114.30000305    1.21000004    2.73000002
   17.67694473  111.72399902    1.19000006    2.71000004
   17.68027687  112.29599762    1.19000006    2.71000004
   17.68361092  117.20500183    1.19000006    2.71000004
   17.68666649  115.70400238    1.21000004    2.73000002
   17.68999863  111.88800049    1.21000004    2.73000002
   17.69305420  111.09600067    1.21000004    2.71000004
   17.69638824  113.59600067    1.21000004    2.71000004
   17.69972038  115.26799774    1.21000004    2.73000002
   17.70583344  115.26799774    1.21000004    2.73000002
   17.71000099  112.02300262    1.21000004    2.71000004
   17.71305656  114.04100037    1.21000004    2.71000004
   17.71638870  107.56900024    1.21000004    2.71000004
   17.71944427  112.39399719    1.21000004    2.73000002
   17.72277832  115.08100128    1.19000006    2.71000004
   17.72611237  117.72799683    1.19000006    2.73000002
   17.72916794  115.06700134    1.21000004    2.73000002
   17.73250008  117.85199738    1.21000004    2.71000004
   17.73583412  109.59799957    1.19000006    2.73000002
   17.73805618  114.11599731    1.19000006    2.73000002
   17.73944473  114.02799988    1.19000006    2.73000002
   17.74250031  113.04299927    1.19000006    2.71000004
   17.74861145  113.04299927    1.16999996    2.71000004
   17.75277710  116.59799957    1.16999996    2.73000002
   17.75611115  113.47100067    1.16999996    2.73000002
   17.75916672  115.63700104    1.16999996    2.73000002
   17.76250076  114.66999817    1.16999996    2.73000002
   17.76555634  114.02600098    1.16999996    2.73000002
   17.76888847  115.01899719    1.16999996    2.73000002
   17.77138901  115.66100311    1.16999996    2.73000002
   17.77249908  121.95999908    1.16999996    2.73000002
   17.77555466  119.78399658    1.19000006    2.71000004
   17.77888870  109.76000214    1.19000006    2.73000002
   17.78222275  108.70899963    1.19000006    2.73000002
   17.78527641  115.52500153    1.19000006    2.73000002
   17.79138756  115.52500153    1.19000006    2.71000004
   17.79555511  118.56300354    1.16999996    2.71000004
   17.79888916  110.95600128    1.19000006    2.73000002
   17.80194283  119.04100037    1.16999996    2.73000002
   17.80472183  118.36699677    1.16999996    2.73000002
   17.80583191  117.78199768    1.16999996    2.73000002
   17.80888748  117.32499695    1.14999998    2.73000002
   17.81222153  116.68599701    1.14999998    2.71000004
   17.81555557  116.33300018    1.14999998    2.73000002
   17.81861115  117.13099670    1.14999998    2.73000002
   17.82194519  117.12500000    1.14999998    2.73000002
   17.82500076  114.23600006    1.14999998    2.73000002
   17.82833481  110.42600250    1.14999998    2.73000002
   17.83444595  110.42600250    1.13000000    2.73000002
   17.83833313  117.37799835    1.13000000    2.73000002
   17.84166718  112.85800171    1.13000000    2.73000002
   17.84500122  114.10399628    1.14999998    2.71000004
   17.84805679  114.79199982    1.16999996    2.73000002
   17.85138893  116.27899933    1.16999996    2.73000002
   17.85472298  117.22899628    1.16999996    2.73000002
   17.85777855  118.32199860    1.16999996    2.73000002
   17.86111069  112.90499878    1.19000006    2.71000004
   17.86416626  120.81600189    1.21000004    2.71000004
   17.86750031  114.84500122    1.21000004    2.73000002
   17.87083435  110.37200165    1.23000002    2.71000004
   17.87138939  111.47100067    1.21000004    2.71000004
   17.87722206  111.47100067    1.21000004    2.73000002
   17.88138962  112.73799896    1.23000002    2.71000004
   17.88444519  111.72399902    1.23000002    2.71000004
   17.88777733  118.45500183    1.21000004    2.73000002
   17.89111137  112.50900269    1.21000004    2.73000002
   17.89416695  111.40399933    1.21000004    2.73000002
   17.89749908  114.31600189    1.21000004    2.71000004
   17.90083313  117.45200348    1.21000004    2.73000002
   17.90388870  112.49199677    1.21000004    2.71000004
   17.90472221  111.60500336    1.21000004    2.71000004
   17.90777779  116.03800201    1.19000006    2.71000004
   17.91083336  119.86799622    1.19000006    2.71000004
   17.91416550  111.70200348    1.16999996    2.73000002
   17.92000008  111.70200348    1.14999998    2.73000002
   17.92416573  119.76999664    1.13000000    2.73000002
   17.92749977  118.51399994    1.13000000    2.73000002
   17.93055534  118.56800079    1.13000000    2.73000002
   17.93388748  123.02300262    1.13000000    2.73000002
   17.93722153  116.84400177    1.13000000    2.73000002
   17.93805504  117.27300262    1.13000000    2.75000000
   17.94083214  126.02999878    1.13000000    2.73000002
   17.94388771  116.77100372    1.13000000    2.73000002
   17.94722176  116.75399780    1.13000000    2.71000004
   17.95055580  117.18000031    1.13000000    2.71000004
   17.95361137  123.65599823    1.13000000    2.71000004
   17.95694542  120.65499878    1.11000001    2.73000002
   17.96277809  120.65499878    1.11000001    2.75000000
   17.96694565  131.92500305    1.11000001    2.73000002
   17.97027779  128.85699463    1.11000001    2.73000002
   17.97138977  124.31300354    1.11000001    2.73000002
   17.97416687  126.64099884    1.11000001    2.73000002
   17.97722244  117.08399963    1.14999998    2.73000002
   17.98055649  124.95899963    1.14999998    2.73000002
   17.98388863  123.51000214    1.14999998    2.73000002
   17.98694420  111.16000366    1.14999998    2.73000002
   17.99027824  114.31700134    1.16999996    2.73000002
   17.99361229  122.62999725    1.19000006    2.73000002
   17.99666786  118.68000031    1.19000006    2.73000002
   18.00000000  120.46499634    1.16999996    2.73000002
   18.00583267  120.46499634    1.16999996    2.73000002
   18.00972176  120.03900146    1.16999996    2.73000002
   18.01305580  116.49099731    1.16999996    2.73000002
   18.01638794  118.02100372    1.14999998    2.73000002
   18.01944351  120.27999878    1.14999998    2.73000002
   18.02277756  117.86599731    1.14999998    2.75000000
   18.02611160  115.06199646    1.16999996    2.73000002
   18.02916718  121.41100311    1.16999996    2.73000002
   18.03249931  118.83699799    1.16999996    2.73000002
   18.03555489  116.35800171    1.16999996    2.73000002
   18.03805542  117.77400208    1.16999996    2.73000002
   18.03944397  117.76000214    1.16999996    2.73000002
   18.04277802  123.42500305    1.14999998    2.73000002
   18.04861069  123.42500305    1.14999998    2.75000000
   18.05277634  118.33699799    1.16999996    2.73000002
   18.05583191  113.59200287    1.14999998    2.75000000
   18.05916595  119.20899963    1.13000000    2.73000002
   18.06250000  114.29199982    1.14999998    2.73000002
   18.06583214  120.50099945    1.14999998    2.73000002
   18.06888962  113.96399689    1.16999996    2.73000002
   18.07139015  116.28600311    1.16999996    2.73000002
   18.07250023  112.92299652    1.16999996    2.73000002
   18.07583427  112.07299805    1.16999996    2.73000002
   18.07888985  116.25800323    1.16999996    2.73000002
   18.08222389  109.56199646    1.16999996    2.73000002
   18.08527756  117.45899963    1.16999996    2.73000002
   18.09138870  117.45899963    1.19000006    2.73000002
   18.09555626  107.58599854    1.19000006    2.73000002
   18.09889030  115.06600189    1.19000006    2.71000004
   18.10194397  114.94400024    1.19000006    2.71000004
   18.10472298  114.46099854    1.21000004    2.71000004
   18.10555649  115.15299988    1.21000004    2.71000004
   18.10888863  114.31900024    1.21000004    2.71000004
   18.11194420  115.23699951    1.23000002    2.71000004
   18.11527824  113.92299652    1.23000002    2.71000004
   18.11833382  118.89199829    1.25000000    2.73000002
   18.12166595  116.02400208    1.23000002    2.71000004
   18.12500000  109.59500122    1.23000002    2.71000004
   18.12805557  119.61399841    1.21000004    2.73000002
   18.13444519  119.61399841    1.16999996    2.73000002
   18.13833237  117.25099945    1.16999996    2.73000002
   18.14166641  115.23300171    1.16999996    2.73000002
   18.14500046  118.05100250    1.16999996    2.75000000
   18.14805603  109.86499786    1.14999998    2.73000002
   18.15138817  118.37500000    1.14999998    2.73000002
   18.15472221  112.87899780    1.14999998    2.75000000
   18.15777779  112.08999634    1.14999998    2.75000000
   18.16110992  113.44999695    1.14999998    2.73000002
   18.16444397  117.09400177    1.14999998    2.73000002
   18.16749954  118.84500122    1.13000000    2.73000002
   18.17083359  113.69300079    1.13000000    2.73000002
   18.17138863  125.35600281    1.14999998    2.73000002
   18.17722130  125.35600281    1.19000006    2.73000002
   18.18138885  115.78199768    1.19000006    2.73000002
   18.18444443  119.29900360    1.19000006    2.73000002
   18.18777657  116.36699677    1.19000006    2.73000002
   18.19111061  119.28099823    1.23000002    2.71000004
   18.19416618  120.85900116    1.23000002    2.71000004
   18.19749832  119.40899658    1.25000000    2.71000004
   18.20055580  119.60399628    1.25000000    2.73000002
   18.20388985  122.97799683    1.25000000    2.73000002
   18.20472336  125.48500061    1.25000000    2.71000004
   18.20750046  120.52200317    1.25000000    2.71000004
   18.21083450  121.39600372    1.25000000    2.71000004
   18.21389008  115.75000000    1.25000000    2.71000004
   18.22000122  115.75000000    1.26999998    2.71000004
   18.22416687  116.28700256    1.28999996    2.69000006
   18.22722244  119.92500305    1.30999994    2.71000004
   18.23055649  126.75199890    1.30999994    2.71000004
   18.23388863  118.79699707    1.33000004    2.71000004
   18.23694420  121.22899628    1.33000004    2.71000004
   18.23805618  121.95099640    1.33000004    2.71000004
   18.24055672  125.46399689    1.30999994    2.71000004
   18.24388885  123.75199890    1.25000000    2.71000004
   18.24694443  128.26899719    1.25000000    2.71000004
   18.25027847  133.38600159    1.25000000    2.71000004
   18.25333405  132.06199646    1.25000000    2.71000004
   18.25666618  127.85299683    1.21000004    2.71000004
   18.26277733  127.85299683    1.21000004    2.73000002
   18.26694489  130.33700562    1.21000004    2.73000002
   18.27027702  136.21000671    1.21000004    2.73000002
   18.27138901  130.73100281    1.21000004    2.73000002
   18.27388954  147.15899658    1.21000004    2.73000002
   18.27722168  140.67599487    1.21000004    2.73000002
   18.28027725  141.07299805    1.21000004    2.73000002
   18.28361130  140.10200500    1.19000006    2.73000002
   18.28694344  156.12399292    1.19000006    2.73000002
   18.28999901  157.08999634    1.19000006    2.73000002
   18.29333305  145.39599609    1.19000006    2.73000002
   18.29638863  142.75799561    1.16999996    2.73000002
   18.29972076  143.61099243    1.16999996    2.73000002
   18.30555534  143.61099243    1.21000004    2.71000004
   18.30972099  131.05000305    1.21000004    2.73000002
   18.31305504  143.97599792    1.23000002    2.71000004
   18.31638718  138.65299988    1.26999998    2.71000004
   18.31944466  145.74499512    1.28999996    2.71000004
   18.32277870  138.31100464    1.28999996    2.71000004
   18.32611275  139.98300171    1.28999996    2.71000004
   18.32916832  145.21000671    1.28999996    2.71000004
   18.33250046  143.83799744    1.28999996    2.71000004
   18.33583450  135.41900635    1.28999996    2.71000004
   18.33833313  136.52699280    1.28999996    2.71000004
   18.33944511  144.05299377    1.28999996    2.71000004
   18.34277916  133.26699829    1.28999996    2.71000004
   18.34861183  133.26699829    1.28999996    2.71000004
   18.35277748  146.29600525    1.26999998    2.71000004
   18.35583305  145.64599609    1.26999998    2.71000004
   18.35916710  145.12500000    1.26999998    2.73000002
   18.36222267  143.07200623    1.26999998    2.71000004
   18.36555672  146.13400269    1.26999998    2.71000004
   18.36888885  143.79499817    1.26999998    2.73000002
   18.37166595  133.48500061    1.26999998    2.73000002
   18.37249947  144.57200623    1.26999998    2.73000002
   18.37583351  146.76499939    1.26999998    2.73000002
   18.37888908  134.26100159    1.25000000    2.71000004
   18.38222313  143.21800232    1.25000000    2.73000002
   18.38555527  138.61900330    1.26999998    2.71000004
   18.39138794  138.61900330    1.25000000    2.71000004
   18.39555550  137.02099609    1.23000002    2.73000002
   18.39861107  144.24499512    1.23000002    2.71000004
   18.40194321  140.95500183    1.23000002    2.73000002
   18.40472221  141.77799988    1.23000002    2.73000002
   18.40555573  140.46299744    1.23000002    2.73000002
   18.40888786  141.24899292    1.23000002    2.73000002
   18.41194344  142.14500427    1.23000002    2.71000004
   18.41527748  137.40800476    1.23000002    2.71000004
   18.41860962  140.35800171    1.25000000    2.71000004
   18.42166519  140.64100647    1.25000000    2.71000004
   18.42499924  146.23899841    1.25000000    2.71000004
   18.42805481  136.14599609    1.23000002    2.73000002
   18.43416595  136.14599609    1.19000006    2.73000002
   18.43833160  139.12600708    1.19000006    2.73000002
   18.44166565  138.27699280    1.30999994    2.71000004
   18.44472122  137.77299500    1.33000004    2.71000004
   18.44805527  141.34300232    1.33000004    2.71000004
   18.45111275  136.25900269    1.33000004    2.71000004
   18.45444489  133.12500000    1.36000001    2.69000006
   18.45777893  136.25999451    1.36000001    2.71000004
   18.46083450  140.53199768    1.34000003    2.71000004
   18.46416664  120.35399628    1.34000003    2.71000004
   18.46750069  130.97500610    1.34000003    2.71000004
   18.47055626  135.05499268    1.34000003    2.71000004
   18.47166634  132.70500183    1.34000003    2.71000004
   18.49222183  132.70500183    1.36000001    2.71000004
   18.49638939  135.80499268    1.34000003    2.71000004
   18.49972153  132.92500305    1.33000004    2.71000004
   18.50277710  127.15000153    1.33000004    2.71000004
   18.50499916  136.04600525    1.33000004    2.73000002
   18.50638962  138.27499390    1.33000004    2.73000002
   18.50972176  128.61300659    1.33000004    2.73000002
   18.51305580  130.22099304    1.33000004    2.73000002
   18.51611137  129.46499634    1.33000004    2.71000004
   18.51944351  133.53100586    1.33000004    2.71000004
   18.52249908  129.78199768    1.33000004    2.71000004
   18.52583313  126.20800018    1.33000004    2.71000004
   18.52916718  136.44900513    1.30999994    2.71000004
   18.53499985  136.44900513    1.30999994    2.71000004
   18.53916550  135.97200012    1.30999994    2.71000004
   18.54249954  129.77999878    1.30999994    2.71000004
   18.54555511  145.60200500    1.30999994    2.71000004
   18.54888916  129.47599792    1.30999994    2.71000004
   18.55194283  126.40399933    1.30999994    2.71000004
   18.55527687  130.63200378    1.30999994    2.71000004
   18.55861092  135.62600708    1.33000004    2.71000004
   18.56166649  132.04200745    1.34000003    2.71000004
   18.56499863  130.47799683    1.34000003    2.71000004
   18.56833458  134.64999390    1.34000003    2.71000004
   18.57139015  143.81399536    1.36000001    2.71000004
   18.57194519  130.60200500    1.36000001    2.71000004
   18.57777786  130.60200500    1.36000001    2.69000006
   18.58194542  131.94200134    1.34000003    2.71000004
   18.58527756  125.15000153    1.36000001    2.71000004
   18.58833313  127.32299805    1.36000001    2.71000004
   18.59166718  127.41200256    1.34000003    2.71000004
   18.59500122  130.01800537    1.34000003    2.71000004
   18.59805679  122.76000214    1.34000003    2.71000004
   18.60138893  130.78100586    1.33000004    2.71000004
   18.60444450  130.57600403    1.28999996    2.71000004
   18.60527802  136.07099915    1.26999998    2.71000004
   18.60833359  132.68699646    1.26999998    2.71000004
   18.61138916  135.64300537    1.25000000    2.73000002
   18.61472321  130.81500244    1.26999998    2.71000004
   18.62083435  130.81500244    1.25000000    2.73000002
   18.62500000  135.41299438    1.25000000    2.71000004
   18.62805557  140.58799744    1.25000000    2.71000004
   18.63138962  141.68200684    1.25000000    2.71000004
   18.63444519  129.84599304    1.26999998    2.71000004
   18.63777733  140.24099731    1.26999998    2.71000004
   18.63861084  138.98100281    1.26999998    2.71000004
   18.64138794  137.69200134    1.30999994    2.71000004
   18.64444351  132.87500000    1.33000004    2.71000004
   18.64777756  140.76199341    1.34000003    2.71000004
   18.65111160  130.61099243    1.34000003    2.71000004
   18.65416718  132.01699829    1.39999998    2.71000004
   18.65749931  138.34100342    1.39999998    2.71000004
   18.66361046  138.34100342    1.39999998    2.69000006
   18.66777802  125.33899689    1.39999998    2.69000006
   18.67083359  141.22500610    1.38000000    2.69000006
   18.67194366  138.15499878    1.39999998    2.69000006
   18.67444420  131.74899292    1.38000000    2.69000006
   18.67777634  127.83000183    1.38000000    2.71000004
   18.68083191  135.73500061    1.38000000    2.69000006
   18.68416595  129.25199890    1.38000000    2.69000006
   18.68722153  138.16499329    1.38000000    2.69000006
   18.69055557  126.25900269    1.36000001    2.69000006
   18.69388771  131.13900757    1.36000001    2.69000006
   18.69694328  127.21700287    1.38000000    2.71000004
   18.70027924  123.08699799    1.36000001    2.71000004
   18.70639038  123.08699799    1.36000001    2.71000004
   18.71055603  134.71400452    1.36000001    2.71000004
   18.71361160  131.03199768    1.34000003    2.69000006
   18.71694565  139.28900146    1.34000003    2.71000004
   18.72027779  152.19299316    1.34000003    2.71000004
   18.72333336  151.06500244    1.34000003    2.71000004
   18.72666740  134.87300110    1.34000003    2.71000004
   18.73000145  145.86599731    1.36000001    2.71000004
   18.73305511  143.50500488    1.36000001    2.69000006
   18.73638916  139.74400330    1.36000001    2.71000004
   18.73861122  146.41499329    1.38000000    2.71000004
   18.73999977  149.55499268    1.39999998    2.69000006
   18.74305534  149.80000305    1.39999998    2.69000006
   18.74916649  149.80000305    1.39999998    2.69000006
   18.75333405  165.56900024    1.39999998    2.69000006
   18.75666618  142.37100220    1.41999996    2.69000006
   18.75972176  152.24800110    1.44000006    2.71000004
   18.76305580  167.82400513    1.48000002    2.69000006
   18.76638794  163.23199463    1.50000000    2.69000006
   18.76944351  163.66999817    1.48000002    2.69000006
   18.77194405  174.70399475    1.48000002    2.69000006
   18.77305603  201.23500061    1.48000002    2.69000006
   18.77611160  189.92799377    1.48000002    2.71000004
   18.77944374  178.71299744    1.46000004    2.69000006
   18.78277779  203.83799744    1.46000004    2.71000004
   18.78610992  196.09100342    1.46000004    2.71000004
   18.79222107  196.09100342    1.44000006    2.69000006
   18.79611015  205.19400024    1.44000006    2.71000004
   18.79944420  210.03599548    1.41999996    2.69000006
   18.80277634  194.65699768    1.39999998    2.69000006
   18.80527687  188.14700317    1.39999998    2.71000004
   18.80638885  193.15400696    1.39999998    2.69000006
   18.80944443  193.60699463    1.38000000    2.69000006
   18.81277657  198.50500488    1.38000000    2.69000006
   18.81611061  221.37899780    1.36000001    2.71000004
   18.81916809  188.46099854    1.36000001    2.71000004
   18.82250023  204.80799866    1.36000001    2.71000004
   18.82583427  216.95100403    1.34000003    2.69000006
   18.82888985  216.13299561    1.34000003    2.69000006
   18.83500099  216.13299561    1.33000004    2.71000004
   18.83889008  160.19400024    1.33000004    2.71000004
   18.84222221  179.98100281    1.33000004    2.71000004
   18.84555626  202.83500671    1.30999994    2.71000004
   18.84861183  194.47599792    1.30999994    2.71000004
   18.85194397  190.64100647    1.30999994    2.71000004
   18.85527802  181.58999634    1.28999996    2.71000004
   18.85833359  194.83799744    1.28999996    2.69000006
   18.86166763  173.80000305    1.28999996    2.69000006
   18.86472321  185.23899841    1.28999996    2.71000004
   18.86805534  195.99699402    1.30999994    2.71000004
   18.87138939  183.79699707    1.30999994    2.71000004
   18.87194443  189.17700195    1.30999994    2.71000004
   18.87777710  189.17700195    1.33000004    2.71000004
   18.88194466  176.88699341    1.30999994    2.71000004
   18.88500023  183.28700256    1.33000004    2.71000004
   18.88833237  180.28700256    1.34000003    2.71000004
   18.89166641  184.16400146    1.34000003    2.71000004
   18.89472198  156.73699951    1.34000003    2.69000006
   18.89805603  171.27699280    1.34000003    2.69000006
   18.90138817  167.68600464    1.34000003    2.71000004
   18.90444374  182.97099304    1.36000001    2.69000006
   18.90527725  187.48899841    1.36000001    2.69000006
   18.90805435  177.27499390    1.36000001    2.69000006
   18.91138840  180.69900513    1.34000003    2.69000006
   18.91444397  191.94700623    1.33000004    2.71000004
   18.92055511  191.94700623    1.33000004    2.71000004
   18.92472076  160.33700562    1.38000000    2.69000006
   18.92805481  166.74800110    1.38000000    2.69000006
   18.93111038  166.71299744    1.39999998    2.69000006
   18.93444443  164.64700317    1.39999998    2.69000006
   18.93750000  166.37699890    1.39999998    2.71000004
   18.93861008  175.86700439    1.39999998    2.71000004
   18.94138718  162.29200745    1.39999998    2.69000006
   18.94444275  153.16099548    1.41999996    2.69000006
   18.94777679  168.12899780    1.41999996    2.71000004
   18.95111275  186.19000244    1.41999996    2.69000006
   18.95416832  175.43099976    1.41999996    2.69000006
   18.95750046  169.56399536    1.41999996    2.69000006
   18.96333504  169.56399536    1.41999996    2.69000006
   18.96750069  171.39999390    1.41999996    2.69000006
   18.97083473  160.73699951    1.41999996    2.69000006
   18.97194481  175.07800293    1.41999996    2.69000006
   18.97444534  163.87500000    1.41999996    2.69000006
   18.97750092  177.37100220    1.41999996    2.71000004
   18.98083305  164.56599426    1.39999998    2.69000006
   18.98416710  165.61500549    1.38000000    2.71000004
   18.98722267  158.03300476    1.38000000    2.69000006
   18.99055672  171.00300598    1.38000000    2.69000006
   18.99388885  151.14700317    1.36000001    2.69000006
   18.99722290  160.34700012    1.33000004    2.71000004
   19.00027847  161.44999695    1.33000004    2.71000004
   19.00638962  161.44999695    1.30999994    2.69000006
   19.01055527  169.58200073    1.33000004    2.69000006
   19.01361084  175.18600464    1.33000004    2.71000004
   19.01694489  167.58999634    1.33000004    2.71000004
   19.02000046  164.50300598    1.33000004    2.71000004
   19.02333260  155.03300476    1.33000004    2.71000004
   19.02666664  156.79499817    1.33000004    2.71000004
   19.02972221  145.96499634    1.30999994    2.71000004
   19.03305435  156.85699463    1.33000004    2.69000006
   19.03638840  159.95700073    1.34000003    2.71000004
   19.03861046  152.89599609    1.36000001    2.69000006
   19.03999901  152.75000000    1.36000001    2.69000006
   19.04333305  158.99699402    1.38000000    2.69000006
   19.04916573  158.99699402    1.39999998    2.71000004
   19.05333328  165.41200256    1.39999998    2.71000004
   19.05638885  170.45199585    1.41999996    2.69000006
   19.05972099  160.59599304    1.41999996    2.69000006
   19.06305504  161.51400757    1.41999996    2.69000006
   19.06611061  162.39500427    1.44000006    2.69000006
   19.06944466  171.92500305    1.44000006    2.69000006
   19.07194519  163.55999756    1.41999996    2.69000006
   19.07305717  164.29800415    1.41999996    2.67000008
   19.07638931  158.50399780    1.41999996    2.69000006
   19.07944489  151.71699524    1.41999996    2.69000006
   19.08277893  155.14300537    1.41999996    2.69000006
   19.08611107  159.26499939    1.39999998    2.69000006
   19.09194565  159.26499939    1.39999998    2.69000006
   19.09611130  166.11799622    1.38000000    2.69000006
   19.09944534  155.18499756    1.39999998    2.69000006
   19.10250092  143.72200012    1.38000000    2.69000006
   19.10527802  147.85699463    1.38000000    2.69000006
   19.10611153  159.05200195    1.38000000    2.69000006
   19.10944557  159.07499695    1.38000000    2.69000006
   19.11250114  130.38900757    1.36000001    2.69000006
   19.11583328  155.81300354    1.36000001    2.71000004
   19.11888885  147.33900452    1.36000001    2.69000006
   19.12222290  145.12800598    1.38000000    2.69000006
   19.12555504  126.11799622    1.38000000    2.69000006
   19.12861061  139.83000183    1.38000000    2.71000004
   19.13500023  139.83000183    1.39999998    2.69000006
   19.13888931  129.92399597    1.38000000    2.69000006
   19.14222145  135.41700745    1.39999998    2.69000006
   19.14555550  140.20799255    1.39999998    2.69000006
   19.14861107  146.02699280    1.39999998    2.69000006
   19.15194321  149.43899536    1.41999996    2.69000006
   19.15499878  156.75900269    1.44000006    2.69000006
   19.15833282  147.47300720    1.46000004    2.67000008
   19.16166687  147.02499390    1.44000006    2.69000006
   19.16472244  152.76600647    1.44000006    2.69000006
   19.16805458  148.09800720    1.46000004    2.69000006
   19.17111015  156.71600342    1.46000004    2.67000008
   19.17194366  160.33900452    1.46000004    2.67000008
   19.17777634  160.33900452    1.48000002    2.67000008
   19.18194389  151.52099609    1.48000002    2.69000006
   19.18499947  135.06399536    1.50000000    2.67000008
   19.18833160  146.42500305    1.50000000    2.67000008
   19.19138718  152.31300354    1.50000000    2.67000008
   19.19472122  149.74099731    1.50000000    2.67000008
   19.19805527  151.89700317    1.51999998    2.67000008
   19.20111275  141.57099915    1.51999998    2.67000008
   19.20444489  153.00799561    1.51999998    2.67000008
   19.20527840  147.77299500    1.51999998    2.67000008
   19.20805550  156.81199646    1.51999998    2.67000008
   19.21138954  147.19799805    1.50000000    2.67000008
   19.21444511  147.06700134    1.50000000    2.67000008
   19.22055626  147.06700134    1.50000000    2.67000008
   19.22472191  155.00199890    1.50000000    2.67000008
   19.22777748  162.08999634    1.50000000    2.67000008
   19.23111153  144.42900085    1.50000000    2.67000008
   19.23444557  159.69099426    1.50000000    2.67000008
   19.23750114  163.25900269    1.50000000    2.67000008
   19.23861122  142.17599487    1.50000000    2.67000008
   19.24111176  148.94599915    1.48000002    2.67000008
   19.24444389  147.93699646    1.48000002    2.67000008
   19.24777794  153.40600586    1.46000004    2.69000006
   19.25083351  134.44799805    1.46000004    2.69000006
   19.25416756  146.26300049    1.48000002    2.69000006
   19.25749969  159.56599426    1.48000002    2.67000008
   19.26333427  159.56599426    1.48000002    2.67000008
   19.26749992  146.23699951    1.46000004    2.67000008
   19.27083397  134.89399719    1.46000004    2.67000008
   19.27194405  139.15800476    1.46000004    2.67000008
   19.27444458  137.12899780    1.48000002    2.67000008
   19.27777672  140.71299744    1.46000004    2.67000008
   19.28083229  142.66000366    1.48000002    2.67000008
   19.28416634  139.70100403    1.46000004    2.69000006
   19.28722191  136.12899780    1.48000002    2.69000006
   19.29055595  136.09500122    1.48000002    2.69000006
   19.29388809  138.82400513    1.46000004    2.67000008
   19.29694366  145.96400452    1.46000004    2.67000008
   19.30027771  139.94799805    1.46000004    2.67000008
   19.30611038  139.94799805    1.44000006    2.69000006
   19.31027794  135.02699280    1.44000006    2.67000008
   19.31361008  135.85400391    1.46000004    2.67000008
   19.31694603  144.25900269    1.44000006    2.67000008
   19.32000160  132.07899475    1.44000006    2.67000008
   19.32333374  142.90199280    1.46000004    2.69000006
   19.32666779  138.40499878    1.44000006    2.69000006
   19.32972336  135.61099243    1.44000006    2.67000008
   19.33305550  140.23899841    1.44000006    2.67000008
   19.33638954  136.28900146    1.46000004    2.69000006
   19.33861160  133.72700500    1.46000004    2.69000006
   19.34000015  136.01899719    1.46000004    2.69000006
   19.34333420  122.09500122    1.46000004    2.69000006
   19.34916687  122.09500122    1.46000004    2.69000006
   19.35333443  133.18200684    1.46000004    2.67000008
   19.35639000  129.71899414    1.48000002    2.67000008
   19.35972214  124.14700317    1.48000002    2.67000008
   19.36277771  133.73100281    1.48000002    2.67000008
   19.36611176  125.73400116    1.48000002    2.67000008
   19.36944389  131.56300354    1.50000000    2.67000008
   19.37222290  124.66400146    1.50000000    2.67000008
   19.37305641  117.90200043    1.50000000    2.67000008
   19.37638855  128.18600464    1.50000000    2.67000008
   19.37944412  136.93099976    1.50000000    2.67000008
   19.38277817  139.65499878    1.50000000    2.67000008
   19.38611031  124.01000214    1.50000000    2.67000008
   19.39194489  124.01000214    1.50000000    2.67000008
   19.39611053  123.04900360    1.50000000    2.67000008
   19.39916611  119.54199982    1.50000000    2.67000008
   19.40250015  119.41699982    1.50000000    2.67000008
   19.40555573  122.60700226    1.50000000    2.67000008
   19.40611076  122.52899933    1.50000000    2.67000008
   19.40944481  126.48400116    1.50000000    2.67000008
   19.41250038  127.63999939    1.50000000    2.67000008
   19.41583252  124.85600281    1.51999998    2.67000008
   19.41916656  122.08599854    1.51999998    2.66000009
   19.42222214  120.42900085    1.51999998    2.66000009
   19.42555428  127.65699768    1.50000000    2.67000008
   19.42888832  124.00499725    1.50000000    2.67000008
   19.43472099  124.00499725    1.48000002    2.67000008
   19.43888855  122.46499634    1.48000002    2.67000008
   19.44222069  123.09500122    1.48000002    2.67000008
   19.44527626  118.43900299    1.48000002    2.67000008
   19.44861031  126.93800354    1.48000002    2.67000008
   19.45194435  122.09400177    1.51999998    2.66000009
   19.45499992  124.08599854    1.58000004    2.66000009
   19.45833397  118.01300049    1.58000004    2.66000009
   19.46138954  124.66799927    1.58000004    2.66000009
   19.46472359  125.37300110    1.58000004    2.66000009
   19.46805573  121.38999939    1.58000004    2.67000008
   19.47111130  123.97499847    1.58000004    2.67000008
   19.47222328  123.97599792    1.58000004    2.67000008
   19.47750092  123.97599792    1.60000002    2.66000009
   19.48166656  131.06900024    1.61000001    2.66000009
   19.48500061  118.47599792    1.61000001    2.66000009
   19.48805618  131.41700745    1.63000000    2.66000009
   19.50583267  119.76999664    1.64999998    2.66000009
   19.50805473  123.20500183    1.64999998    2.66000009
   19.51138878  129.71099854    1.64999998    2.66000009
   19.51472282  122.80100250    1.64999998    2.66000009
   19.52055550  122.80100250    1.63000000    2.66000009
   19.52472115  125.52100372    1.63000000    2.66000009
   19.52805519  122.73400116    1.63000000    2.66000009
   19.53111076  121.08300018    1.63000000    2.66000009
   19.53444481  123.13099670    1.63000000    2.66000009
   19.53777695  127.56099701    1.63000000    2.66000009
   19.53916550  113.99500275    1.63000000    2.66000009
   19.54166603  121.52200317    1.66999996    2.66000009
   19.54472160  118.14700317    1.66999996    2.66000009
   19.54805565  126.28900146    1.64999998    2.66000009
   19.55138779  127.66799927    1.69000006    2.66000009
   19.55444336  120.69499969    1.66999996    2.66000009
   19.55777740  108.32700348    1.69000006    2.66000009
   19.56333351  108.32700348    1.64999998    2.66000009
   19.56750107  120.78800201    1.64999998    2.66000009
   19.57083511  115.01899719    1.63000000    2.66000009
   19.57250023  123.01999664    1.63000000    2.66000009
   19.57444572  113.42199707    1.63000000    2.66000009
   19.57777786  118.39900208    1.64999998    2.67000008
   19.58083344  127.45999908    1.63000000    2.66000009
   19.58416748  119.98799896    1.63000000    2.66000009
   19.58750153  117.87999725    1.61000001    2.66000009
   19.59055710  124.58799744    1.63000000    2.66000009
   19.59388924  124.03700256    1.61000001    2.66000009
   19.59722328  134.11500549    1.61000001    2.66000009
   19.60027885  126.67500305    1.63000000    2.66000009
   19.60639000  126.67500305    1.61000001    2.66000009
   19.61055565  127.25800323    1.61000001    2.66000009
   19.61361122  123.56199646    1.61000001    2.66000009
   19.61694527  127.38099670    1.61000001    2.66000009
   19.62000084  133.08900452    1.61000001    2.66000009
   19.62333298  114.79100037    1.61000001    2.66000009
   19.62666702  129.87300110    1.61000001    2.66000009
   19.62972260  128.28700256    1.61000001    2.66000009
   19.63305473  122.33200073    1.63000000    2.66000009
   19.63638878  131.15100098    1.63000000    2.64000010
   19.63916588  132.31700134    1.63000000    2.64000010
   19.63999939  126.61199951    1.63000000    2.64000010
   19.64333344  131.77499390    1.61000001    2.66000009
   19.64916611  131.77499390    1.64999998    2.66000009
   19.65333366  129.68200684    1.64999998    2.66000009
   19.65638924  125.52100372    1.64999998    2.66000009
   19.65972137  132.04800415    1.64999998    2.64000010
   19.66305542  132.01800537    1.64999998    2.64000010
   19.66611099  125.07099915    1.64999998    2.66000009
   19.66944313  131.27999878    1.66999996    2.66000009
   19.67222214  132.37600708    1.66999996    2.66000009
   19.67305565  126.32399750    1.66999996    2.66000009
   19.67638779  126.37799835    1.66999996    2.66000009
   19.67944336  125.04299927    1.71000004    2.64000010
   19.68277740  125.91300201    1.71000004    2.64000010
   19.68610954  131.98100281    1.71000004    2.66000009
   19.69194412  131.98100281    1.73000002    2.64000010
   19.69610977  128.19099426    1.75000000    2.64000010
   19.69944382  128.73500061    1.75000000    2.64000010
   19.70250130  125.77999878    1.75000000    2.64000010
   19.70639038  137.94099426    1.75000000    2.64000010
   19.70694542  138.14399719    1.75000000    2.64000010
   19.71027946  122.23300171    1.76999998    2.64000010
   19.71333504  136.52699280    1.76999998    2.64000010
   19.71666718  135.72000122    1.76999998    2.64000010
   19.71972275  134.86799622    1.76999998    2.64000010
   19.72305679  139.23100281    1.78999996    2.64000010
   19.72638893  133.38200378    1.78999996    2.64000010
   19.72944450  134.53999329    1.78999996    2.64000010
   19.73500061  134.53999329    1.80999994    2.64000010
   19.73916626  143.71800232    1.80999994    2.64000010
   19.73944473  131.87399292    1.80999994    2.64000010
   19.74277878  139.57099915    1.80999994    2.64000010
   19.74611092  136.50300598    1.80999994    2.64000010
   19.74916649  140.22099304    1.80999994    2.64000010
   19.75250053  135.82899475    1.80999994    2.64000010
   19.75555611  146.54299927    1.80999994    2.61999989
   19.75888824  130.02799988    1.80999994    2.61999989
   19.76222229  129.27099609    1.80999994    2.64000010
   19.76527786  141.61900330    1.78999996    2.64000010
   19.76861000  134.61900330    1.78999996    2.64000010
   19.77194405  133.71000671    1.78999996    2.64000010
   19.77249908  136.79800415    1.78999996    2.64000010
   19.77777672  136.79800415    1.78999996    2.61999989
   19.78194427  141.83200073    1.78999996    2.64000010
   19.78527641  138.12100220    1.78999996    2.61999989
   19.78833199  130.65899658    1.78999996    2.61999989
   19.79166603  138.17100525    1.78999996    2.61999989
   19.79500008  141.19000244    1.76999998    2.61999989
   19.79805565  145.97999573    1.76999998    2.64000010
   19.80138779  142.41000366    1.76999998    2.61999989
   19.80472183  133.26300049    1.76999998    2.64000010
   19.80583191  126.40499878    1.76999998    2.64000010
   19.80805397  130.41600037    1.76999998    2.64000010
   19.81138802  139.72300720    1.76999998    2.64000010
   19.81472206  132.73199463    1.76999998    2.64000010
   19.82055664  132.73199463    1.76999998    2.64000010
   19.82472229  134.21699524    1.76999998    2.61999989
   19.82777786  144.93800354    1.76999998    2.64000010
   19.83111191  142.46099854    1.76999998    2.64000010
   19.83444595  133.16700745    1.76999998    2.61999989
   19.83750153  135.99400330    1.76999998    2.61999989
   19.83916664  125.77700043    1.76999998    2.61999989
   19.84111214  134.28500366    1.76999998    2.61999989
   19.84444427  131.39500427    1.76999998    2.64000010
   19.84777832  124.34100342    1.76999998    2.64000010
   19.85083389  139.65299988    1.78999996    2.61999989
   19.85416794  124.86900330    1.78999996    2.61999989
   19.85722351  133.17399597    1.78999996    2.61999989
   19.86333466  133.17399597    1.80999994    2.61999989
   19.86750031  127.99700165    1.80999994    2.61999989
   19.87083435  128.53799438    1.80999994    2.61999989
   19.87249947  130.09500122    1.80999994    2.61999989
   19.87444496  138.46400452    1.80999994    2.61999989
   19.87750053  137.03599548    1.83000004    2.61999989
   19.88083267  141.35800171    1.83000004    2.64000010
   19.88416672  138.17300415    1.83000004    2.64000010
   19.88722229  135.46400452    1.85000002    2.61999989
   19.89055634  136.70100403    1.86000001    2.61999989
   19.89388847  133.48800659    1.86000001    2.61999989
   19.89694405  142.32499695    1.86000001    2.61999989
   19.90027809  134.61999512    1.86000001    2.61999989
   19.90666580  134.61999512    1.89999998    2.61999989
   19.91083336  137.29600525    1.89999998    2.59999990
   19.91388893  143.19299316    1.89999998    2.59999990
   19.91722107  142.72099304    1.91999996    2.61999989
   19.92055511  133.11900330    1.91999996    2.59999990
   19.92361069  133.42300415    1.91999996    2.61999989
   19.92694473  138.50000000    1.91999996    2.61999989
   19.93027687  132.75599670    1.91999996    2.59999990
   19.93333244  140.19000244    1.91999996    2.61999989
   19.93666649  142.28599548    1.94000006    2.59999990
   19.93916512  128.69000244    1.94000006    2.61999989
   19.94027710  138.71899414    1.94000006    2.61999989
   19.94361115  133.99499512    1.94000006    2.59999990
   19.94916534  133.99499512    1.96000004    2.59999990
   19.95305634  134.62300110    1.98000002    2.59999990
   19.95639038  129.73199463    1.96000004    2.59999990
   19.95972252  138.65800476    1.96000004    2.59999990
   19.96277809  137.21099854    1.98000002    2.59999990
   19.96611214  131.30200195    1.98000002    2.59999990
   19.96944427  141.82000732    1.98000002    2.59999990
   19.97249985  123.78299713    1.98000002    2.59999990
   19.97277832  133.68699646    1.98000002    2.59999990
   19.97611237  139.18400574    2.00000000    2.59999990
   19.97944450  131.60299683    2.00000000    2.59999990
   19.98250008  136.55700684    2.01999998    2.59999990
   19.98583412  130.34599304    2.00000000    2.59999990
   19.99194527  130.34599304    2.01999998    2.59999990
   19.99611092  140.31799316    2.03999996    2.59999990
   19.99916649  145.19299316    2.03999996    2.57999992
   20.00250053  136.62399292    2.05999994    2.59999990
   20.00583267  135.69200134    2.05999994    2.59999990
   20.00611115  140.85899353    2.05999994    2.57999992
   20.00944519  133.03199768    2.05999994    2.57999992
   20.01277733  128.46800232    2.05999994    2.57999992
   20.01583290  136.46600342    2.05999994    2.59999990
   20.01916695  136.32000732    2.05999994    2.59999990
   20.02222252  131.36399841    2.07999992    2.57999992
   20.02555466  134.66799927    2.07999992    2.59999990
   20.02888870  133.88499451    2.09999990    2.57999992
   20.03472137  133.88499451    2.07999992    2.57999992
   20.03888893  126.14800262    2.09999990    2.57999992
   20.03944397  125.23999786    2.07999992    2.57999992
   20.04277802  126.61799622    2.09999990    2.57999992
   20.04583359  136.20199585    2.09999990    2.57999992
   20.04916573  135.07800293    2.09999990    2.59999990
   20.05249977  131.05299377    2.11999989    2.57999992
   20.05555534  143.33500671    2.13000011    2.57999992
   20.05888748  127.87500000    2.13000011    2.57999992
   20.06194305  130.84399414    2.13000011    2.59999990
   20.06527710  139.60099792    2.15000010    2.57999992
   20.06861115  144.48500061    2.15000010    2.57999992
   20.07166672  133.59500122    2.17000008    2.57999992
   20.07277870  143.44299316    2.17000008    2.57999992
   20.07750130  143.44299316    2.17000008    2.57999992
   20.08166695  142.99099731    2.17000008    2.57999992
   20.08500099  131.69400024    2.19000006    2.57999992
   20.08833313  142.90899658    2.17000008    2.57999992
   20.09138870  134.88099670    2.17000008    2.57999992
   20.09472275  132.82600403    2.19000006    2.57999992
   20.09805679  144.09700012    2.19000006    2.57999992
   20.10111237  135.68800354    2.19000006    2.57999992
   20.10444450  141.64700317    2.19000006    2.57999992
   20.10611153  129.73699951    2.19000006    2.57999992
   20.10805511  127.48000336    2.19000006    2.57999992
   20.11111069  143.27699280    2.19000006    2.57999992
   20.11444473  134.68400574    2.19000006    2.57999992
   20.12055588  134.68400574    2.19000006    2.55999994
   20.12472153  131.55499268    2.19000006    2.57999992
   20.12777710  135.03199768    2.19000006    2.57999992
   20.13111115  147.40499878    2.19000006    2.57999992
   20.13416672  139.95199585    2.21000004    2.55999994
   20.13750076  138.81199646    2.19000006    2.57999992
   20.13944435  142.32499695    2.19000006    2.57999992
   20.14138794  146.75999451    2.21000004    2.57999992
   20.14444351  129.27999878    2.21000004    2.57999992
   20.14777756  137.23899841    2.19000006    2.57999992
   20.15111160  132.35000610    2.21000004    2.57999992
   20.15416718  130.65499878    2.19000006    2.55999994
   20.15749931  126.24299622    2.19000006    2.57999992
   20.16333389  126.24299622    2.19000006    2.57999992
   20.16749954  125.19599915    2.19000006    2.57999992
   20.17055511  135.55799866    2.19000006    2.55999994
   20.17277718  135.51100159    2.19000006    2.55999994
   20.17444420  143.39700317    2.19000006    2.57999992
   20.17749977  135.22300720    2.19000006    2.55999994
   20.18083191  139.71899414    2.19000006    2.57999992
   20.18416595  129.86199951    2.21000004    2.55999994
   20.18722153  133.18299866    2.19000006    2.55999994
   20.19055557  138.65499878    2.21000004    2.55999994
   20.19361115  143.17799377    2.23000002    2.55999994
   20.19694328  126.13999939    2.23000002    2.55999994
   20.20027924  133.31599426    2.25000000    2.55999994
   20.20611191  133.31599426    2.25000000    2.55999994
   20.21027946  144.57000732    2.26999998    2.55999994
   20.21361160  151.80799866    2.28999996    2.55999994
   20.21666718  150.63699341    2.28999996    2.55999994
   20.22000122  138.31100464    2.32999992    2.55999994
   20.22333336  144.90199280    2.32999992    2.53999996
   20.22638893  136.73699951    2.32999992    2.53999996
   20.22972298  136.47099304    2.34999990    2.53999996
   20.23277855  137.51800537    2.39000010    2.53999996
   20.23611069  132.39599609    2.39000010    2.55999994
   20.23944473  149.69599915    2.40000010    2.55999994
   20.23972321  144.67100525    2.40000010    2.55999994
   20.24305534  149.55099487    2.42000008    2.53999996
   20.24888992  149.55099487    2.42000008    2.53999996
   20.25305557  130.34300232    2.44000006    2.53999996
   20.25638962  136.83099365    2.42000008    2.53999996
   20.25944519  152.15400696    2.44000006    2.53999996
   20.26277733  139.41299438    2.44000006    2.53999996
   20.26611137  131.86500549    2.44000006    2.53999996
   20.26916695  139.05599976    2.46000004    2.53999996
   20.27249908  149.63000488    2.48000002    2.53999996
   20.27305603  142.60099792    2.46000004    2.53999996
   20.27611160  135.93499756    2.46000004    2.53999996
   20.27944374  135.65100098    2.48000002    2.53999996
   20.28249931  137.74099731    2.48000002    2.53999996
   20.28583336  139.99800110    2.50000000    2.53999996
   20.29194450  139.99800110    2.50000000    2.53999996
   20.29583359  140.33000183    2.50000000    2.53999996
   20.29916573  140.54400635    2.50000000    2.53999996
   20.30249977  140.51199341    2.50000000    2.53999996
   20.30555534  150.24000549    2.50000000    2.53999996
   20.30638885  138.86099243    2.50000000    2.53999996
   20.30916595  134.03500366    2.50000000    2.53999996
   20.31250000  151.76100159    2.50000000    2.53999996
   20.31583214  141.06799316    2.51999998    2.53999996
   20.31888962  135.50999451    2.51999998    2.53999996
   20.32222366  132.09599304    2.53999996    2.53999996
   20.32527924  132.54899597    2.53999996    2.53999996
   20.32861137  143.52299500    2.53999996    2.53999996
   20.33472252  143.52299500    2.55999994    2.53999996
   20.33889008  142.72200012    2.57999992    2.51999998
   20.34000015  140.05799866    2.57999992    2.53999996
   20.34250069  142.95899963    2.57999992    2.53999996
   20.34583473  134.52099609    2.59999990    2.51999998
   20.34916687  144.72799683    2.59999990    2.51999998
   20.35222244  149.72300720    2.59999990    2.51999998
   20.35555649  151.50900269    2.61999989    2.51999998
   20.35861206  146.28100586    2.61999989    2.51999998
   20.36194420  148.71600342    2.64000010    2.53999996
   20.36527824  153.01699829    2.64000010    2.51999998
   20.36833382  151.63299561    2.64000010    2.51999998
   20.37166595  147.93800354    2.64000010    2.51999998
   20.37333298  150.92300415    2.64000010    2.51999998
   20.37750053  150.92300415    2.64000010    2.51999998
   20.38166618  149.05400085    2.66000009    2.51999998
   20.38500023  152.42900085    2.66000009    2.51999998
   20.38805580  152.17799377    2.66000009    2.51999998
   20.39138794  150.58999634    2.66000009    2.51999998
   20.39472198  152.12699890    2.66000009    2.51999998
   20.39777756  158.38499451    2.66000009    2.51999998
   20.40111160  147.28500366    2.66000009    2.51999998
   20.40416718  159.00199890    2.66000009    2.51999998
   20.40666580  145.94900513    2.67000008    2.51999998
   20.40777779  148.52299500    2.66000009    2.50000000
   20.41110992  144.86999512    2.66000009    2.51999998
   20.41416550  159.27799988    2.67000008    2.51999998
   20.42027664  159.27799988    2.67000008    2.51999998
   20.42444420  149.10899353    2.67000008    2.50000000
   20.42777634  148.90299988    2.67000008    2.50000000
   20.43111038  139.94700623    2.67000008    2.51999998
   20.43416595  148.14599609    2.67000008    2.50000000
   20.43750000  144.14599609    2.67000008    2.50000000
   20.43999863  156.63499451    2.67000008    2.50000000
   20.44111061  162.08399963    2.67000008    2.50000000
   20.44444275  151.07499695    2.67000008    2.50000000
   20.44749832  160.49099731    2.67000008    2.50000000
   20.45083427  155.34199524    2.67000008    2.51999998
   20.45416832  156.29299927    2.67000008    2.51999998
   20.45722389  164.41999817    2.67000008    2.50000000
   20.46333504  164.41999817    2.69000006    2.50000000
   20.46750069  160.80799866    2.69000006    2.50000000
   20.47055626  167.36000061    2.69000006    2.50000000
   20.47333336  152.46699524    2.69000006    2.50000000
   20.47416687  153.47399902    2.71000004    2.50000000
   20.47750092  141.27099609    2.71000004    2.50000000
   20.48055649  150.77600098    2.71000004    2.50000000
   20.48388863  155.64399719    2.71000004    2.50000000
   20.48722267  140.63699341    2.71000004    2.50000000
   20.49027824  151.97700500    2.73000002    2.50000000
   20.49361229  154.52600098    2.73000002    2.48000002
   20.49694443  146.31100464    2.73000002    2.48000002
   20.50000000  150.51800537    2.75000000    2.48000002
   20.50611115  150.51800537    2.76999998    2.48000002
   20.52444458  153.10699463    2.78999996    2.48000002
   20.52777672  143.72900391    2.78999996    2.48000002
   20.53083229  132.97799683    2.80999994    2.46000004
   20.53416634  145.36300659    2.80999994    2.48000002
   20.53750038  130.76100159    2.80999994    2.48000002
   20.54055595  144.53199768    2.80999994    2.48000002
   20.54388809  142.24499512    2.80999994    2.48000002
   20.54916573  142.24499512    2.80999994    2.48000002
   20.55333328  150.95300293    2.80999994    2.48000002
   20.55666542  136.46299744    2.80999994    2.48000002
   20.55749893  140.41999817    2.80999994    2.48000002
   20.56027794  145.43499756    2.80999994    2.46000004
   20.56333351  141.25599670    2.80999994    2.48000002
   20.56666756  147.84599304    2.80999994    2.48000002
   20.56972313  146.33799744    2.82999992    2.48000002
   20.57305717  147.15299988    2.82999992    2.48000002
   20.57638931  138.43699646    2.82999992    2.46000004
   20.57944489  140.73300171    2.82999992    2.46000004
   20.58277893  135.06900024    2.84999990    2.48000002
   20.58611107  151.51100159    2.84999990    2.46000004
   20.59194565  151.51100159    2.82999992    2.48000002
   20.59611130  125.77999878    2.82999992    2.48000002
   20.59944534  132.54400635    2.84999990    2.46000004
   20.60250092  139.38400269    2.86999989    2.46000004
   20.60583305  128.55099487    2.86999989    2.46000004
   20.60916710  143.88900757    2.86999989    2.46000004
   20.61222267  131.53900146    2.86999989    2.48000002
   20.61555672  133.22500610    2.86999989    2.46000004
   20.61888885  148.22799683    2.86999989    2.46000004
   20.62194443  146.50399780    2.89000010    2.46000004
   20.62416649  137.43699646    2.89000010    2.46000004
   20.62583351  127.47100067    2.91000009    2.46000004
   20.62888908  153.06700134    2.91000009    2.46000004
   20.63472176  153.06700134    2.91000009    2.46000004
   20.63888931  144.69700623    2.93000007    2.46000004
   20.64222145  152.25500488    2.94000006    2.46000004
   20.64527702  154.91999817    2.94000006    2.46000004
   20.64861107  147.04200745    2.96000004    2.46000004
   20.65194321  146.90699768    2.96000004    2.46000004
   20.65499878  128.52699280    2.96000004    2.46000004
   20.65749931  141.47099304    2.96000004    2.46000004
   20.65888786  143.28500366    2.98000002    2.44000006
   20.66194344  147.78700256    2.98000002    2.46000004
   20.66527748  141.61599731    2.98000002    2.44000006
   20.66833305  147.46699524    2.98000002    2.46000004
   20.67166519  133.28700256    3.00000000    2.46000004
   20.67777634  133.28700256    3.00000000    2.44000006
   20.68166542  151.47500610    3.01999998    2.44000006
   20.68499947  148.11000061    3.00000000    2.44000006
   20.68833160  150.33000183    3.01999998    2.44000006
   20.69083214  148.75300598    3.01999998    2.44000006
   20.69194412  147.88099670    3.00000000    2.44000006
   20.69499969  141.47900391    3.00000000    2.44000006
   20.69833183  144.61199951    3.00000000    2.44000006
   20.70166779  158.93899536    3.01999998    2.44000006
   20.70472336  140.37100220    3.01999998    2.44000006
   20.70805550  145.20399475    3.01999998    2.44000006
   20.71111107  145.89799500    3.03999996    2.44000006
   20.71444511  137.30799866    3.05999994    2.44000006
   20.72055626  137.30799866    3.05999994    2.42000008
   20.72472191  139.43200684    3.05999994    2.42000008
   20.72777748  135.94599915    3.05999994    2.44000006
   20.73111153  142.35499573    3.05999994    2.42000008
   20.73444557  132.60699463    3.05999994    2.42000008
   20.73750114  137.99099731    3.05999994    2.42000008
   20.74083328  145.07499695    3.05999994    2.44000006
   20.74416733  139.14500427    3.05999994    2.42000008
   20.74722290  138.62100220    3.05999994    2.44000006
   20.75055504  135.12399292    3.03999996    2.42000008
   20.75361061  138.30299377    3.05999994    2.44000006
   20.75694466  141.65499878    3.03999996    2.44000006
   20.75749969  140.07899475    3.03999996    2.44000006
   20.76333427  140.07899475    3.03999996    2.44000006
   20.76749992  132.13900757    3.05999994    2.44000006
   20.77083397  123.24400330    3.05999994    2.42000008
   20.77388954  126.58200073    3.05999994    2.42000008
   20.77722168  135.07000732    3.05999994    2.42000008
   20.78055573  136.75700378    3.05999994    2.42000008
   20.78361130  145.99499512    3.05999994    2.44000006
   20.78694344  131.41499329    3.05999994    2.42000008
   20.79027748  137.38800049    3.05999994    2.42000008
   20.79083252  132.15800476    3.05999994    2.42000008
   20.79388809  133.76400757    3.05999994    2.42000008
   20.79694366  138.30099487    3.07999992    2.42000008
   20.80027771  129.50900269    3.07999992    2.42000008
   20.80611038  129.50900269    3.09999990    2.42000008
   20.81027794  134.66900635    3.09999990    2.42000008
   20.81361008  132.53999329    3.11999989    2.42000008
   20.81694603  130.82200623    3.11999989    2.42000008
   20.82000160  123.55000305    3.14000010    2.40000010
   20.82333374  143.48399353    3.14000010    2.40000010
   20.82416725  131.10099792    3.16000009    2.40000010
   20.82694626  145.57899475    3.14000010    2.40000010
   20.83000183  141.49099731    3.16000009    2.40000010
   20.83333397  138.65100098    3.16000009    2.40000010
   20.83666801  145.00799561    3.18000007    2.40000010
   20.83972359  138.21400452    3.18000007    2.40000010
   20.84305573  145.72300720    3.18000007    2.40000010
   20.84916687  145.72300720    3.20000005    2.40000010
   20.85333443  161.09100342    3.21000004    2.39000010
   20.85639000  161.02200317    3.21000004    2.39000010
   20.85750008  167.22900391    3.21000004    2.39000010
   20.86000061  150.98399353    3.21000004    2.39000010
   20.86305618  161.02699280    3.21000004    2.39000010
   20.86638832  148.42199707    3.21000004    2.40000010
   20.86972237  162.97399902    3.21000004    2.39000010
   20.87277794  166.21699524    3.21000004    2.40000010
   20.87611198  167.07099915    3.21000004    2.39000010
