    HOUR (UT)   FLARE FACTOR    SKY TESTER    SUN TESTER
   11.73166656   -1.00000000   -1.00000000   -1.00000000
   12.02944374  200.48199463    0.00000000    0.00000000
   12.03277779  200.20599365    0.00000000    0.00000000
   12.03611183  207.20899963    0.00000000    0.00000000
   12.03944492  207.90899658    0.00000000    0.00000000
   12.04277802  196.91700745    0.00000000    0.00000000
   12.04583359  185.41099548    0.00000000    0.00000000
   12.05000019  185.41099548    0.00000000    0.00000000
   12.05416679  176.34800720    0.00000000    0.00000000
   12.05749989  174.16200256    1.83000004    1.76999998
   12.06083393  181.10800171    1.83000004    1.76999998
   12.06277752  182.48599243    1.83000004    1.76999998
   12.06444454  173.55400085    1.83000004    1.76999998
   12.06777763  170.97399902    1.83000004    1.76999998
   12.07083321  176.12800598    1.83000004    1.76999998
   12.07416630  165.92500305    1.83000004    1.76999998
   12.07750034  172.77999878    1.83000004    1.76999998
   12.08083344  170.26300049    1.83000004    1.76999998
   12.08388901  174.20799255    1.83000004    1.76999998
   12.08722210  174.64799500    1.83000004    1.76999998
   12.09277725  174.64799500    1.83000004    1.76999998
   12.09694386  163.88200378    1.83000004    1.76999998
   12.10055637  174.60899353    1.83000004    1.76999998
   12.10361195  194.04699707    1.83000004    1.76999998
   12.10694504  182.25500488    1.83000004    1.76999998
   12.11027813  168.74899292    1.83000004    1.76999998
   12.11361122  179.69099426    1.83000004    1.76999998
   12.11666679  171.29100037    1.83000004    1.76999998
   12.12055588  183.88200378    1.83000004    1.76999998
   12.12361145  176.23699951    1.83000004    1.76999998
   12.12694454  163.22399902    1.83000004    1.76999998
   12.12944412  163.74099731    1.83000004    1.76999998
   12.13055611  165.62199402    1.83000004    1.76999998
   12.13583279  165.62199402    1.83000004    1.76999998
   12.14000034  155.25599670    1.83000004    1.76999998
   12.14333344  154.18099976    1.83000004    1.76999998
   12.14666653  164.94900513    1.83000004    1.76999998
   12.14999962  166.19599915    1.83000004    1.76999998
   12.15305519  156.75999451    1.83000004    1.76999998
   12.15638828  161.83799744    1.83000004    1.76999998
   12.15972137  157.45199585    1.83000004    1.76999998
   12.16277695  149.44700623    1.83000004    1.76999998
   12.16333294  154.76800537    1.83000004    1.76999998
   12.16666698  163.90100098    1.83000004    1.76999998
   12.17000008  159.30799866    1.83000004    1.76999998
   12.17333412  165.79800415    1.83000004    1.76999998
   12.17861176  165.79800415    1.83000004    1.76999998
   12.18277836  153.49400330    1.83000004    1.76999998
   12.18611145  164.96600342    1.83000004    1.76999998
   12.18944454  146.09300232    1.83000004    1.76999998
   12.19250011  148.54400635    1.83000004    1.76999998
   12.19583321  150.79899597    1.83000004    1.76999998
   12.19638920  159.74200439    1.83000004    1.76999998
   12.19972229  155.97999573    1.83000004    1.76999998
   12.20277786  149.10699463    1.83000004    1.76999998
   12.20611095  166.88200378    1.83000004    1.76999998
   12.20944405  154.32299805    1.83000004    1.76999998
   12.21277714  160.58200073    1.83000004    1.76999998
   12.21583271  168.37199402    1.83000004    1.76999998
   12.22138882  168.37199402    1.83000004    1.76999998
   12.22555542  165.13900757    1.83000004    1.76999998
   12.22888851  151.71899414    1.83000004    1.76999998
   12.22972202  154.84100342    1.83000004    1.76999998
   12.23249912  155.06100464    1.83000004    1.76999998
   12.23583317  180.08000183    1.83000004    1.76999998
   12.23888874  150.83500671    1.83000004    1.76999998
   12.24222279  154.38600159    1.83000004    1.76999998
   12.24555588  152.10200500    1.83000004    1.76999998
   12.24888897  163.83299255    1.83000004    1.76999998
   12.25194454  170.34700012    1.83000004    1.76999998
   12.25527763  162.90400696    1.83000004    1.76999998
   12.25861073  170.16999817    1.83000004    1.76999998
   12.26416683  170.16999817    1.83000004    1.76999998
   12.26861095  155.50900269    1.83000004    1.76999998
   12.27166653  155.30999756    1.83000004    1.76999998
   12.27499962  160.92199707    1.83000004    1.76999998
   12.27833271  160.93600464    1.83000004    1.76999998
   12.28166676  157.29699707    1.83000004    1.76999998
   12.28472233  162.83299255    1.83000004    1.76999998
   12.28805637  156.34700012    1.83000004    1.76999998
   12.29138947  148.44900513    1.83000004    1.76999998
   12.29472256  144.97000122    1.83000004    1.76999998
   12.29638958  151.69299316    1.83000004    1.76999998
   12.29833412  151.16099548    1.83000004    1.76999998
   12.30166721  155.44599915    1.83000004    1.76999998
   12.30722237  155.44599915    1.83000004    1.76999998
   12.31138897  152.11700439    1.83000004    1.76999998
   12.31444454  161.91000366    1.83000004    1.76999998
   12.31777763  154.16900635    1.83000004    1.76999998
   12.32111073  151.38600159    1.83000004    1.76999998
   12.32444477  148.80400085    1.83000004    1.76999998
   12.32777786  146.63200378    1.83000004    1.76999998
   12.32972240  146.20199585    1.83000004    1.76999998
   12.33138847  146.17300415    1.83000004    1.76999998
   12.33472157  147.95100403    1.83000004    1.76999998
   12.33805561  142.98899841    1.83000004    1.76999998
   12.34138870  158.31799316    1.83000004    1.76999998
   12.34444427  150.29499817    1.83000004    1.76999998
   12.35000038  150.29499817    1.83000004    1.76999998
   12.35416698  147.79899597    1.83000004    1.76999998
   12.35750008  148.67500305    1.83000004    1.76999998
   12.36083412  144.84899902    1.83000004    1.76999998
   12.36305618  159.82699585    1.83000004    1.76999998
   12.36444473  149.88299561    1.83000004    1.76999998
   12.36777782  148.70700073    1.83000004    1.76999998
   12.37083340  148.90100098    1.83000004    1.76999998
   12.37416649  153.15699768    1.83000004    1.76999998
   12.37750053  158.59700012    1.83000004    1.76999998
   12.38083363  159.31799316    1.83000004    1.76999998
   12.38388920  153.24899292    1.83000004    1.76999998
   12.38722229  148.87399292    1.83000004    1.76999998
   12.39277744  148.87399292    1.83000004    1.76999998
   12.39694405  142.76800537    1.83000004    1.76999998
   12.40027714  145.73899841    1.83000004    1.76999998
   12.40361118  150.57499695    1.83000004    1.76999998
   12.40666676  146.41200256    1.83000004    1.76999998
   12.40999985  143.62500000    1.83000004    1.76999998
   12.41333294  142.61700439    1.83000004    1.76999998
   12.41666698  140.72000122    1.83000004    1.76999998
   12.41972256  146.50399780    1.83000004    1.76999998
   12.42305565  138.81599426    1.83000004    1.76999998
   12.42638874  137.56300354    1.83000004    1.76999998
   12.42972279  147.30599976    1.83000004    1.76999998
   12.43027782  144.99499512    1.83000004    1.76999998
   12.43555546  144.99499512    1.83000004    1.76999998
   12.44000053  146.99099731    1.83000004    1.76999998
   12.44305515  146.90199280    1.83000004    1.76999998
   12.44638920  143.75199890    1.83000004    1.76999998
   12.44972229  142.94700623    1.83000004    1.76999998
   12.45305538  137.97900391    1.83000004    1.76999998
   12.45611095  147.08599854    1.83000004    1.76999998
   12.45944405  155.31399536    1.83000004    1.76999998
   12.46277714  157.60600281    1.83000004    1.76999998
   12.46361065  143.61799622    1.83000004    1.76999998
   12.46666622  150.46800232    1.83000004    1.76999998
   12.46972179  149.40100098    1.83000004    1.76999998
   12.47305489  146.69500732    1.83000004    1.76999998
   12.47861099  146.69500732    1.83000004    1.76999998
   12.48277760  142.70500183    1.83000004    1.76999998
   12.48583317  147.49899292    1.83000004    1.76999998
   12.48916721  149.49299622    1.83000004    1.76999998
   12.49250031  147.79600525    1.83000004    1.76999998
   12.49583340  147.26800537    1.83000004    1.76999998
   12.49694443  150.68499756    1.83000004    1.76999998
   12.49944496  149.42199707    1.83000004    1.76999998
   12.50249958  147.52299500    1.83000004    1.76999998
   12.50583363  146.73699951    1.83000004    1.76999998
   12.50916672  149.31500244    1.83000004    1.76999998
   12.51249981  147.46800232    1.83000004    1.76999998
   12.51583290  146.50300598    1.83000004    1.76999998
   12.52138901  146.50300598    1.83000004    1.76999998
   12.52555561  147.86399841    1.83000004    1.76999998
   12.52888870  154.14300537    1.83000004    1.76999998
   12.53027725  150.68699646    1.83000004    1.76999998
   12.53249931  147.70599365    1.83000004    1.76999998
   12.53555584  150.22099304    1.83000004    1.76999998
   12.53888893  144.90400696    1.83000004    1.76999998
   12.54222298  151.46699524    1.83000004    1.76999998
   12.54555607  144.86300659    1.83000004    1.76999998
   12.54861164  144.74899292    1.83000004    1.76999998
   12.55194473  147.25500488    1.83000004    1.76999998
   12.55583382  146.59100342    1.83000004    1.76999998
   12.55916691  132.51699829    1.83000004    1.76999998
   12.56416702  132.51699829    1.83000004    1.76999998
   12.56833363  134.81100464    1.83000004    1.76999998
   12.57166672  138.15100098    1.83000004    1.76999998
   12.57499981  133.19299316    1.83000004    1.76999998
   12.57833290  137.93800354    1.83000004    1.76999998
   12.58138847  135.26300049    1.83000004    1.76999998
   12.58472157  133.56100464    1.83000004    1.76999998
   12.58805561  135.21800232    1.83000004    1.76999998
   12.59138870  135.41700745    1.83000004    1.76999998
   12.59444427  134.13999939    1.83000004    1.76999998
   12.59694386  136.70199585    1.83000004    1.76999998
   12.59833336  139.98100281    1.83000004    1.76999998
   12.60138893  136.16900635    1.83000004    1.76999998
   12.60694504  136.16900635    1.83000004    1.76999998
   12.61111164  139.63800049    1.83000004    1.76999998
   12.61444473  147.86099243    1.83000004    1.76999998
   12.61777782  144.05400085    1.83000004    1.76999998
   12.62111092  143.33700562    1.83000004    1.76999998
   12.62416649  142.74400330    1.83000004    1.76999998
   12.62750053  149.09100342    1.83000004    1.76999998
   12.63027763  141.37399292    1.83000004    1.76999998
   12.63138866  147.20599365    1.83000004    1.76999998
   12.63444424  154.53199768    1.83000004    1.76999998
   12.63777733  148.95399475    1.83000004    1.76999998
   12.64111137  144.00199890    1.83000004    1.76999998
   12.64444447  145.84399414    1.83000004    1.76999998
   12.64999962  145.84399414    1.83000004    1.76999998
   12.65416622  146.77200317    1.83000004    1.76999998
   12.65722179  144.07099915    1.83000004    1.76999998
   12.66055489  147.23500061    1.83000004    1.76999998
   12.66361046  139.84199524    1.83000004    1.76999998
   12.66444397  141.38400269    1.83000004    1.76999998
   12.66750050  139.64999390    1.83000004    1.76999998
   12.67083359  139.88800049    1.83000004    1.76999998
   12.67416668  136.91999817    1.83000004    1.76999998
   12.67750072  137.08099365    1.83000004    1.76999998
   12.68083382  140.74800110    1.83000004    1.76999998
   12.68388939  140.93899536    1.83000004    1.76999998
   12.68722248  138.69000244    1.83000004    1.76999998
   12.69277763  138.69000244    1.83000004    1.76999998
   12.69694424  141.90600586    1.83000004    1.76999998
   12.70027733  142.62800598    1.83000004    1.76999998
   12.70361137  146.53700256    1.83000004    1.76999998
   12.70666695  148.66799927    1.83000004    1.76999998
   12.71000004  146.68899536    1.83000004    1.76999998
   12.71333313  149.01199341    1.83000004    1.76999998
   12.71666622  146.71099854    1.83000004    1.76999998
   12.71972179  147.06100464    1.83000004    1.76999998
   12.72305489  147.02999878    1.83000004    1.76999998
   12.72638798  141.38200378    1.83000004    1.76999998
   12.72972202  144.22900391    1.83000004    1.76999998
   12.73027706  151.07200623    1.83000004    1.76999998
   12.73555565  151.07200623    1.83000004    1.76999998
   12.73972225  142.23800659    1.83000004    1.76999998
   12.74305534  140.91999817    1.83000004    1.76999998
   12.74638939  142.71400452    1.83000004    1.76999998
   12.74944496  145.35600281    1.83000004    1.76999998
   12.75277805  148.26699829    1.83000004    1.76999998
   12.75611115  142.66200256    1.83000004    1.76999998
   12.75944424  140.44799805    1.83000004    1.76999998
   12.76249981  140.57899475    1.83000004    1.76999998
   12.76361084  142.53100586    1.83000004    1.76999998
   12.76638889  151.09599304    1.83000004    1.76999998
   12.76944447  146.24800110    1.83000004    1.76999998
   12.77277756  142.13200378    1.83000004    1.76999998
   12.77833271  142.13200378    1.83000004    1.76999998
   12.78249931  143.31599426    1.83000004    1.76999998
   12.78583336  146.38800049    1.83000004    1.76999998
   12.78916740  142.14300537    1.83000004    1.76999998
   12.79250050  144.54499817    1.83000004    1.76999998
   12.79555607  140.16499329    1.83000004    1.76999998
   12.79694462  148.76100159    1.83000004    1.76999998
   12.79944515  139.48800659    1.83000004    1.76999998
   12.80277824  139.72900391    1.83000004    1.76999998
   12.80583382  141.74499512    1.83000004    1.76999998
   12.80916691  146.05999756    1.83000004    1.76999998
   12.81250000  147.85800171    1.83000004    1.76999998
   12.81583309  144.11399841    1.83000004    1.76999998
   12.82138920  144.11399841    1.83000004    1.76999998
   12.82555580  141.69500732    1.83000004    1.76999998
   12.82888889  146.13800049    1.83000004    1.76999998
   12.83027744  146.90299988    1.83000004    1.76999998
   12.83249950  146.65400696    1.83000004    1.76999998
   12.83555508  138.50100708    1.83000004    1.76999998
   12.83888817  148.52000427    1.83000004    1.76999998
   12.84222221  146.55700684    1.83000004    1.76999998
   12.84555531  139.28700256    1.83000004    1.76999998
   12.84861088  135.09599304    1.83000004    1.76999998
   12.85194492  147.61099243    1.83000004    1.76999998
   12.85527802  137.86099243    1.83000004    1.76999998
   12.85861111  139.99899292    1.83000004    1.76999998
   12.86416721  139.99899292    1.83000004    1.76999998
   12.86833382  139.59800720    1.83000004    1.76999998
   12.87166691  140.09300232    1.83000004    1.76999998
   12.87500000  145.13200378    1.83000004    1.76999998
   12.87805557  132.79699707    1.83000004    1.76999998
   12.88166714  134.11300659    1.83000004    1.76999998
   12.88472176  150.10200500    1.83000004    1.76999998
   12.88805580  145.53599548    1.83000004    1.76999998
   12.89138889  138.38699341    1.83000004    1.76999998
   12.89472198  139.62699890    1.83000004    1.76999998
   12.89694405  148.05900574    1.83000004    1.76999998
   12.89833355  142.65299988    1.83000004    1.76999998
   12.90138817  147.68400574    1.83000004    1.76999998
   12.90694427  147.68400574    1.83000004    1.76999998
   12.91111088  139.11500549    1.83000004    1.76999998
   12.91444397  140.54699707    1.83000004    1.76999998
   12.91777802  140.01800537    1.83000004    1.76999998
   12.92083359  141.41099548    1.83000004    1.76999998
   12.92416668  142.39100647    1.83000004    1.76999998
   12.92750072  146.36300659    1.83000004    1.76999998
   12.93027782  145.25199890    1.83000004    1.76999998
   12.93111134  146.87600708    1.83000004    1.76999998
   12.93416691  142.86300659    1.83000004    1.76999998
   12.93750000  140.55700684    1.83000004    1.76999998
   12.94083309  139.97900391    1.83000004    1.76999998
   12.94416714  143.94400024    1.83000004    1.76999998
   12.94972229  143.94400024    1.83000004    1.76999998
   12.95388889  139.94500732    1.83000004    1.76999998
   12.95722198  135.75799561    1.83000004    1.76999998
   12.96055508  141.47500610    1.83000004    1.76999998
   12.96361065  144.41400146    1.83000004    1.76999998
   12.96416664  143.58599854    1.83000004    1.76999998
   12.96749973  141.38499451    1.83000004    1.76999998
   12.97055531  139.74600220    1.83000004    1.76999998
   12.97388840  144.07899475    1.83000004    1.76999998
   12.97722149  137.14399719    1.83000004    1.76999998
   12.98055553  137.24000549    1.83000004    1.76999998
   12.98361111  137.00500488    1.83000004    1.76999998
   12.98694515  132.35400391    1.83000004    1.76999998
   12.99277782  132.35400391    1.83000004    1.76999998
   12.99694443  139.43699646    1.83000004    1.76999998
   12.99750042  150.08299255    1.83000004    1.76999998
   13.00055599  135.16299438    1.83000004    1.76999998
   13.00388908  130.21899414    1.83000004    1.76999998
   13.00722218  140.62800598    1.83000004    1.76999998
   13.01055527  138.72399902    1.83000004    1.76999998
   13.01361084  140.12500000    1.83000004    1.76999998
   13.01694393  142.68699646    1.83000004    1.76999998
   13.02027798  143.72399902    1.83000004    1.76999998
   13.02361107  148.57200623    1.83000004    1.76999998
   13.02694416  145.80000305    1.83000004    1.76999998
   13.02999973  145.13499451    1.83000004    1.76999998
   13.04722309  145.73500061    1.83000004    1.76999998
   13.05138874  145.73500061    1.83000004    1.76999998
   13.05555534  141.79600525    1.83000004    1.76999998
   13.05888939  145.99699402    1.83000004    1.76999998
   13.06222248  137.79600525    1.83000004    1.76999998
   13.06527805  148.37199402    1.83000004    1.76999998
   13.06861115  147.59199524    1.83000004    1.76999998
   13.07194424  180.59899902    1.83000004    1.76999998
   13.07527733  158.92900085    1.83000004    1.76999998
   13.07833290  137.85000610    1.83000004    1.76999998
   13.08055592  145.97200012    1.83000004    1.76999998
   13.08194447  151.50100708    1.83000004    1.76999998
   13.08527756  134.17999268    1.83000004    1.76999998
   13.08861065  157.02499390    1.83000004    1.76999998
   13.09416676  157.02499390    1.83000004    1.76999998
   13.09833336  131.07800293    1.83000004    1.76999998
   13.10166740  134.40400696    1.83000004    1.76999998
   13.10500050  136.32699585    1.83000004    1.76999998
   13.10805607  139.56500244    1.83000004    1.76999998
   13.11138916  136.22599792    1.83000004    1.76999998
   13.11388969  155.12199402    1.83000004    1.76999998
   13.11500072  143.19599915    1.83000004    1.76999998
   13.11833382  135.19000244    1.83000004    1.76999998
   13.12166691  139.36999512    1.83000004    1.76999998
   13.12500000  139.57899475    1.83000004    1.76999998
   13.12805557  149.40299988    1.83000004    1.76999998
   13.13138866  159.96499634    1.83000004    1.76999998
   13.13694477  159.96499634    1.83000004    1.76999998
   13.14111137  140.95500183    1.83000004    1.76999998
   13.14444447  144.16600037    1.83000004    1.76999998
   13.14722252  142.94000244    1.83000004    1.76999998
   13.14805508  143.70599365    1.83000004    1.76999998
   13.15138817  140.84800720    1.83000004    1.76999998
   13.15472221  134.61799622    1.83000004    1.76999998
   13.15805531  138.06399536    1.83000004    1.76999998
   13.16111088  133.41099548    1.83000004    1.76999998
   13.16444397  145.22599792    1.83000004    1.76999998
   13.16777802  147.49499512    1.83000004    1.76999998
   13.17111111  139.37100220    1.83000004    1.76999998
   13.17444515  141.22200012    1.83000004    1.76999998
   13.18000031  141.22200012    1.83000004    1.76999998
   13.18416691  144.80999756    1.83000004    1.76999998
   13.18722248  152.03799438    1.83000004    1.76999998
   13.19055557  135.51600647    1.83000004    1.76999998
   13.19388866  141.72099304    1.83000004    1.76999998
   13.19722271  150.98100281    1.83000004    1.76999998
   13.20055580  149.20599365    1.83000004    1.76999998
   13.20361137  145.23699951    1.83000004    1.76999998
   13.20694447  157.02600098    1.83000004    1.76999998
   13.21027756  139.82499695    1.83000004    1.76999998
   13.21361065  153.56799316    1.83000004    1.76999998
   13.21500015  138.85699463    1.83000004    1.76999998
   13.21722221  138.62300110    1.83000004    1.76999998
   13.22277737  138.62300110    1.83000004    1.76999998
   13.22694397  131.82099915    1.83000004    1.76999998
   13.23027706  143.38999939    1.83000004    1.76999998
   13.23333359  138.78399658    1.83000004    1.76999998
   13.23666668  132.81100464    1.83000004    1.76999998
   13.24000072  137.17300415    1.83000004    1.76999998
   13.24333382  138.90699768    1.83000004    1.76999998
   13.24638939  147.86799622    1.83000004    1.76999998
   13.24833393  135.56500244    1.83000004    1.76999998
   13.25027752  133.80999756    1.83000004    1.76999998
   13.25361156  146.95599365    1.83000004    1.76999998
   13.25666714  145.12699890    1.83000004    1.76999998
   13.26000023  149.08299255    1.83000004    1.76999998
   13.26555538  149.08299255    1.83000004    1.76999998
   13.26972198  145.96200562    1.83000004    1.76999998
   13.27305508  151.13699341    1.83000004    1.76999998
   13.27638817  152.17799377    1.83000004    1.76999998
   13.27944374  139.89100647    1.83000004    1.76999998
   13.28194427  139.82499695    1.83000004    1.76999998
   13.28305531  143.18800354    1.83000004    1.76999998
   13.28638935  144.37699890    1.83000004    1.76999998
   13.28972244  138.04499817    1.83000004    1.76999998
   13.29305553  147.69400024    1.83000004    1.76999998
   13.29638958  149.42500305    1.83000004    1.76999998
   13.29944515  145.98899841    1.83000004    1.76999998
   13.30277824  139.25599670    1.83000004    1.76999998
   13.30833340  139.25599670    1.83000004    1.76999998
   13.31250000  142.85299683    1.83000004    1.76999998
   13.31527805  133.77299500    1.83000004    1.76999998
   13.31611156  138.18800354    1.83000004    1.76999998
   13.31944466  140.49499512    1.83000004    1.76999998
   13.32277775  140.52600098    1.83000004    1.76999998
   13.32611084  130.17199707    1.83000004    1.76999998
   13.32944393  134.63400269    1.83000004    1.76999998
   13.33249950  144.07299805    1.83000004    1.76999998
   13.33583260  140.83099365    1.83000004    1.76999998
   13.33916664  143.62800598    1.83000004    1.76999998
   13.34249973  134.48100281    1.83000004    1.76999998
   13.34555531  140.93299866    1.83000004    1.76999998
   13.35111141  140.93299866    1.83000004    1.76999998
   13.35555553  139.52400208    1.83000004    1.76999998
   13.35861111  141.73699951    1.83000004    1.76999998
   13.36194515  135.64199829    1.83000004    1.76999998
   13.36527824  130.07000732    1.83000004    1.76999998
   13.36861134  140.62800598    1.83000004    1.76999998
   13.37166691  139.73699951    1.83000004    1.76999998
   13.37500000  143.53500366    1.83000004    1.76999998
   13.37833309  142.42399597    1.83000004    1.76999998
   13.38166714  149.63200378    1.83000004    1.76999998
   13.38222218  140.17300415    1.83000004    1.76999998
   13.38527775  144.07899475    1.83000004    1.76999998
   13.38861084  138.12500000    1.83000004    1.76999998
   13.39416695  138.12500000    1.83000004    1.76999998
   13.39833355  153.02999878    1.83000004    1.76999998
   13.40166664  140.69700623    1.83000004    1.76999998
   13.40472221  138.39799500    1.83000004    1.76999998
   13.40805531  144.47300720    1.83000004    1.76999998
   13.41138840  144.53599548    1.83000004    1.76999998
   13.41472149  147.91000366    1.83000004    1.76999998
   13.41555500  137.54699707    1.83000004    1.76999998
   13.41833401  132.19099426    1.83000004    1.76999998
   13.42138958  139.09899902    1.83000004    1.76999998
   13.42472267  138.11199951    1.83000004    1.76999998
   13.42805576  137.87100220    1.83000004    1.76999998
   13.43138885  127.84500122    1.83000004    1.76999998
   13.43694496  127.84500122    1.83000004    1.76999998
   13.44111156  130.46099854    1.83000004    1.76999998
   13.44444466  132.52299500    1.83000004    1.76999998
   13.44777775  134.22999573    1.83000004    1.76999998
   13.44888878  134.33200073    1.83000004    1.76999998
   13.45138836  131.76899719    1.83000004    1.76999998
   13.45472240  137.83299255    1.83000004    1.76999998
   13.45805550  141.19900513    1.83000004    1.76999998
   13.46138859  134.23100281    1.83000004    1.76999998
   13.46444416  137.62399292    1.83000004    1.76999998
   13.46777725  142.11700439    1.83000004    1.76999998
   13.47111034  135.28700256    1.83000004    1.76999998
   13.47444439  134.55700684    1.83000004    1.76999998
   13.47972202  134.55700684    1.83000004    1.76999998
   13.48388958  134.86000061    1.83000004    1.76999998
   13.48722267  144.23399353    1.83000004    1.76999998
   13.49055576  130.33000183    1.83000004    1.76999998
   13.49388885  133.78399658    1.83000004    1.76999998
   13.49694443  142.72999573    1.83000004    1.76999998
   13.50027752  130.35499573    1.83000004    1.76999998
   13.50361156  136.29899597    1.83000004    1.76999998
   13.50694466  138.97700500    1.83000004    1.76999998
   13.51000023  139.51100159    1.83000004    1.76999998
   13.51333332  137.41200256    1.83000004    1.76999998
   13.51555538  136.27900696    1.83000004    1.76999998
   13.51694393  133.58900452    1.83000004    1.76999998
   13.52250004  133.58900452    1.83000004    1.76999998
   13.52694416  125.82599640    1.83000004    1.76999998
   13.52999973  130.12500000    1.83000004    1.76999998
   13.53333378  127.16300201    1.83000004    1.76999998
   13.53666687  119.54699707    1.83000004    1.76999998
   13.54000092  126.30599976    1.83000004    1.76999998
   13.54333401  122.36799622    1.83000004    1.76999998
   13.54638958  127.50099945    1.83000004    1.76999998
   13.54916668  128.01800537    1.83000004    1.76999998
   13.55000019  133.31300354    1.83000004    1.76999998
   13.55333328  121.97399902    1.83000004    1.76999998
   13.55666733  129.98800659    1.83000004    1.76999998
   13.56000042  133.76300049    1.83000004    1.76999998
   13.56555557  133.76300049    1.83000004    1.76999998
   13.56972218  131.53900146    1.83000004    1.76999998
   13.57277775  135.12100220    1.83000004    1.76999998
   13.57611084  134.94799805    1.83000004    1.76999998
   13.57944393  132.58000183    1.83000004    1.76999998
   13.58249950  138.32600403    1.83000004    1.76999998
   13.58305550  141.23699951    1.83000004    1.76999998
   13.58638859  126.56800079    1.83000004    1.76999998
   13.58972168  130.75599670    1.83000004    1.76999998
   13.59305477  131.54600525    1.83000004    1.76999998
   13.59638882  134.88099670    1.83000004    1.76999998
   13.59944439  138.59500122    1.83000004    1.76999998
   13.60277843  137.96800232    1.83000004    1.76999998
   13.60833359  137.96800232    1.83000004    1.76999998
   13.61250019  130.55200195    1.83000004    1.76999998
   13.61583328  133.32099915    1.83000004    1.76999998
   13.61611176  139.48699951    1.83000004    1.76999998
   13.61944485  136.47500610    1.83000004    1.76999998
   13.62277794  129.36999512    1.83000004    1.76999998
   13.62611103  127.40699768    1.83000004    1.76999998
   13.62916660  135.09399414    1.83000004    1.76999998
   13.63249969  125.23799896    1.83000004    1.76999998
   13.63583279  132.46800232    1.83000004    1.76999998
   13.63916683  130.90899658    1.83000004    1.76999998
   13.64249992  138.77499390    1.83000004    1.76999998
   13.64555550  131.05200195    1.83000004    1.76999998
   13.65111065  131.05200195    1.83000004    1.76999998
   13.65527725  143.75799561    1.83000004    1.76999998
   13.65861034  136.24299622    1.83000004    1.76999998
   13.66194439  147.09899902    1.83000004    1.76999998
   13.66527748  139.45500183    1.83000004    1.76999998
   13.66833401  130.54600525    1.83000004    1.76999998
   13.67166710  132.49899292    1.83000004    1.76999998
   13.67500019  130.69900513    1.83000004    1.76999998
   13.67833328  138.29200745    1.83000004    1.76999998
   13.68138885  128.97599792    1.83000004    1.76999998
   13.68249989  129.33700562    1.83000004    1.76999998
   13.68527794  133.04100037    1.83000004    1.76999998
   13.68833351  139.61799622    1.83000004    1.76999998
   13.69388866  139.61799622    1.83000004    1.76999998
   13.69805527  129.45100403    1.83000004    1.76999998
   13.70138836  139.60699463    1.83000004    1.76999998
   13.70472240  130.58299255    1.83000004    1.76999998
   13.70805550  130.53999329    1.83000004    1.76999998
   13.71111107  125.62100220    1.83000004    1.76999998
   13.71444416  120.69000244    1.83000004    1.76999998
   13.71583271  125.16699982    1.83000004    1.76999998
   13.71833324  130.50599670    1.83000004    1.76999998
   13.72138882  134.19799805    1.83000004    1.76999998
   13.72472191  129.61799622    1.83000004    1.76999998
   13.72805500  136.49400330    1.83000004    1.76999998
   13.73138809  135.14999390    1.83000004    1.76999998
   13.73694515  135.14999390    1.83000004    1.76999998
   13.74111176  138.69999695    1.83000004    1.76999998
   13.74416733  146.90899658    1.83000004    1.76999998
   13.74750042  139.12199402    1.83000004    1.76999998
   13.74916649  140.68600464    1.83000004    1.76999998
   13.75111103  129.88200378    1.83000004    1.76999998
   13.75444412  130.43699646    1.83000004    1.76999998
   13.75777817  134.39799500    1.83000004    1.76999998
   13.76111126  139.86399841    1.83000004    1.76999998
   13.76416683  131.19000244    1.83000004    1.76999998
   13.76749992  134.80599976    1.83000004    1.76999998
   13.77083302  124.26300049    1.83000004    1.76999998
   13.77416611  140.70399475    1.83000004    1.76999998
   13.77972221  140.70399475    1.83000004    1.76999998
   13.78388977  143.06599426    1.83000004    1.76999998
   13.78722286  138.29499817    1.83000004    1.76999998
   13.79055595  132.66299438    1.83000004    1.76999998
   13.79388905  140.26400757    1.83000004    1.76999998
   13.79722309  138.26499939    1.83000004    1.76999998
   13.80055618  138.46699524    1.83000004    1.76999998
   13.80361176  135.19200134    1.83000004    1.76999998
   13.80694485  141.00399780    1.83000004    1.76999998
   13.81027794  140.00500488    1.83000004    1.76999998
   13.81361103  133.43299866    1.83000004    1.76999998
   13.81583309  140.93099976    1.83000004    1.76999998
   13.81722260  139.03399658    1.83000004    1.76999998
   13.82250023  139.03399658    1.83000004    1.76999998
   13.82666683  131.03399658    1.83000004    1.76999998
   13.82999992  135.91000366    1.83000004    1.76999998
   13.83333302  151.50999451    1.83000004    1.76999998
   13.83638859  136.19900513    1.83000004    1.76999998
   13.83972168  132.90299988    1.83000004    1.76999998
   13.84305477  134.13000488    1.83000004    1.76999998
   13.84638882  130.19099426    1.83000004    1.76999998
   13.84916592  142.06199646    1.83000004    1.76999998
   13.85000038  138.86399841    1.83000004    1.76999998
   13.85333347  133.32800293    1.83000004    1.76999998
   13.85666752  135.87300110    1.83000004    1.76999998
   13.85972214  133.87600708    1.83000004    1.76999998
   13.86527824  133.87600708    1.83000004    1.76999998
   13.86944485  131.14199829    1.83000004    1.76999998
   13.87277794  130.40800476    1.83000004    1.76999998
   13.87611103  128.16799927    1.83000004    1.76999998
   13.87944412  128.03700256    1.83000004    1.76999998
   13.88249969  135.37199402    1.83000004    1.76999998
   13.88305569  124.27700043    1.83000004    1.76999998
   13.88638878  128.60499573    1.83000004    1.76999998
   13.88972187  130.88600159    1.83000004    1.76999998
   13.89277744  130.40800476    1.83000004    1.76999998
   13.89611053  135.98699951    1.83000004    1.76999998
   13.89944458  128.80799866    1.83000004    1.76999998
   13.90277767  130.58900452    1.83000004    1.76999998
   13.90833282  130.58900452    1.83000004    1.76999998
   13.91249943  123.41500092    1.83000004    1.76999998
   13.91555500  135.81900024    1.83000004    1.76999998
   13.91611099  135.53300476    1.83000004    1.76999998
   13.91944504  138.81300354    1.83000004    1.76999998
   13.92277813  128.80400085    1.83000004    1.76999998
   13.92611122  134.95399475    1.83000004    1.76999998
   13.92944431  136.31700134    1.83000004    1.76999998
   13.93249989  135.03399658    1.83000004    1.76999998
   13.93583298  133.03599548    1.83000004    1.76999998
   13.93916702  135.35699463    1.83000004    1.76999998
   13.94250011  137.06700134    1.83000004    1.76999998
   13.94555569  139.83099365    1.83000004    1.76999998
   13.95111084  139.83099365    1.83000004    1.76999998
   13.95527744  134.35400391    1.83000004    1.76999998
   13.95861053  132.13900757    1.83000004    1.76999998
   13.96166611  127.49600220    1.83000004    1.76999998
   13.96500015  137.57400513    1.83000004    1.76999998
   13.96833324  134.02400208    1.83000004    1.76999998
   13.97166634  129.21600342    1.83000004    1.76999998
   13.97472191  137.17999268    1.83000004    1.76999998
   13.97805500  135.16200256    1.83000004    1.76999998
   13.98138809  130.74699402    1.83000004    1.76999998
   13.98277760  136.02000427    1.83000004    1.76999998
   13.98500061  128.77600098    1.83000004    1.76999998
   13.98833370  133.84599304    1.83000004    1.76999998
   13.99388885  133.84599304    1.83000004    1.76999998
   13.99805546  130.64799500    1.83000004    1.76999998
   14.00138855  134.38000488    1.83000004    1.76999998
   14.00472260  119.98500061    1.83000004    1.76999998
   14.00805569  138.77900696    1.83000004    1.76999998
   14.01111126  138.24099731    1.83000004    1.76999998
   14.01444435  134.28500366    1.83000004    1.76999998
   14.01638889  136.93400574    1.83000004    1.76999998
   14.01833344  133.23500061    1.83000004    1.76999998
   14.02138901  143.37899780    1.83000004    1.76999998
   14.02472210  142.46200562    1.83000004    1.76999998
   14.02805519  142.16999817    1.83000004    1.76999998
   14.03138828  133.76899719    1.83000004    1.76999998
   14.03666687  133.76899719    1.83000004    1.76999998
   14.04083347  136.34899902    1.83000004    1.76999998
   14.04416752  137.57800293    1.83000004    1.76999998
   14.04750061  130.81500244    1.83000004    1.76999998
   14.06444454  139.96299744    1.83000004    1.76999998
   14.06750011  130.92999268    1.83000004    1.76999998
   14.07083321  142.68899536    1.83000004    1.76999998
   14.07416630  136.75599670    1.83000004    1.76999998
   14.07972240  136.75599670    1.83000004    1.76999998
   14.08388901  146.84199524    1.83000004    1.76999998
   14.08722210  138.49000549    1.83000004    1.76999998
   14.09027767  138.46299744    1.83000004    1.76999998
   14.09361076  146.06300354    1.83000004    1.76999998
   14.09694386  140.75799561    1.83000004    1.76999998
   14.09777737  141.97700500    1.83000004    1.76999998
   14.10055637  129.36599731    1.83000004    1.76999998
   14.10388947  131.77600098    1.83000004    1.76999998
   14.10694504  153.67599487    1.83000004    1.76999998
   14.11027813  140.34700012    1.83000004    1.76999998
   14.11361122  126.53299713    1.83000004    1.76999998
   14.11694431  133.24099731    1.83000004    1.76999998
   14.12250042  133.24099731    1.83000004    1.76999998
   14.12666702  130.46299744    1.83000004    1.76999998
   14.13000011  126.55999756    1.83000004    1.76999998
   14.13111115  125.02100372    1.83000004    1.76999998
   14.13361073  130.00700378    1.83000004    1.76999998
   14.13694477  126.09400177    1.83000004    1.76999998
   14.14000034  132.49400330    1.83000004    1.76999998
   14.14333344  131.66799927    1.83000004    1.76999998
   14.14666653  134.38400269    1.83000004    1.76999998
   14.14999962  129.30000305    1.83000004    1.76999998
   14.15333271  130.21400452    1.83000004    1.76999998
   14.15638828  129.77900696    1.83000004    1.76999998
   14.15972137  129.50599670    1.83000004    1.76999998
   14.16527748  129.50599670    1.83000004    1.76999998
   14.16944504  179.21499634    1.83000004    1.76999998
   14.17277813  146.95300293    1.83000004    1.76999998
   14.17611122  158.78799438    1.83000004    1.76999998
   14.17944431  139.11700439    1.83000004    1.76999998
   14.18249989  146.88499451    1.83000004    1.76999998
   14.18583298  154.86700439    1.83000004    1.76999998
   14.18916702  140.58500671    1.83000004    1.76999998
   14.19250011  135.67500305    1.83000004    1.76999998
   14.19555569  134.93699646    1.83000004    1.76999998
   14.19777775  142.01100159    1.83000004    1.76999998
   14.19944477  136.67399597    1.83000004    1.76999998
   14.20277786  148.94299316    1.83000004    1.76999998
   14.20805550  148.94299316    1.83000004    1.76999998
   14.21249962  125.67299652    1.83000004    1.76999998
   14.21555519  124.28600311    1.83000004    1.76999998
   14.21888828  130.90899658    1.83000004    1.76999998
   14.22222137  136.14199829    1.83000004    1.76999998
   14.22555542  148.13299561    1.83000004    1.76999998
   14.22861099  125.57399750    1.83000004    1.76999998
   14.23111057  128.83700562    1.83000004    1.76999998
   14.23249912  135.91299438    1.83000004    1.76999998
   14.23583317  129.92599487    1.83000004    1.76999998
   14.23888874  138.35099792    1.83000004    1.76999998
   14.24222279  122.68000031    1.83000004    1.76999998
   14.24555588  128.94400024    1.83000004    1.76999998
   14.25111103  128.94400024    1.83000004    1.76999998
   14.25527763  126.87000275    1.83000004    1.76999998
   14.25833321  124.38099670    1.83000004    1.76999998
   14.26166630  132.49200439    1.83000004    1.76999998
   14.26444435  130.55599976    1.83000004    1.76999998
   14.26555538  132.14999390    1.83000004    1.76999998
   14.26888847  135.89999390    1.83000004    1.76999998
   14.27194405  137.07000732    1.83000004    1.76999998
   14.27527714  131.41000366    1.83000004    1.76999998
   14.27861118  130.72200012    1.83000004    1.76999998
   14.28194427  128.90100098    1.83000004    1.76999998
   14.28500080  139.37899780    1.83000004    1.76999998
   14.28833389  130.08200073    1.83000004    1.76999998
   14.29388905  130.08200073    1.83000004    1.76999998
   14.29805565  129.97799683    1.83000004    1.76999998
   14.30138874  140.44799805    1.83000004    1.76999998
   14.30444431  143.09500122    1.83000004    1.76999998
   14.30777836  133.49899292    1.83000004    1.76999998
   14.31111145  137.64500427    1.83000004    1.76999998
   14.31444454  127.92400360    1.83000004    1.76999998
   14.31777763  132.33599854    1.83000004    1.76999998
   14.32111073  144.16999817    1.83000004    1.76999998
   14.32416630  123.51399994    1.83000004    1.76999998
   14.32750034  126.85299683    1.83000004    1.76999998
   14.33083344  124.67099762    1.83000004    1.76999998
   14.33138847  130.86000061    1.83000004    1.76999998
   14.33666611  130.86000061    1.83000004    1.76999998
   14.34083271  128.83999634    1.83000004    1.76999998
   14.34416676  140.37399292    1.83000004    1.76999998
   14.34749985  130.58500671    1.83000004    1.76999998
   14.35055637  135.39799500    1.83000004    1.76999998
   14.35388947  132.03799438    1.83000004    1.76999998
   14.35722256  137.88999939    1.83000004    1.76999998
   14.36055565  141.03199768    1.83000004    1.76999998
   14.36361122  143.24699402    1.83000004    1.76999998
   14.36472225  136.85200500    1.83000004    1.76999998
   14.36750031  141.76199341    1.83000004    1.76999998
   14.37055588  134.75100708    1.83000004    1.76999998
   14.37388897  146.34300232    1.83000004    1.76999998
   14.37944412  146.34300232    1.83000004    1.76999998
   14.38361073  129.98699951    1.83000004    1.76999998
   14.38694477  137.68499756    1.83000004    1.76999998
   14.39027786  142.98399353    1.83000004    1.76999998
   14.39361095  134.29600525    1.83000004    1.76999998
   14.39666653  138.45199585    1.83000004    1.76999998
   14.39805508  130.00500488    1.83000004    1.76999998
   14.40055561  133.27699280    1.83000004    1.76999998
   14.40361118  139.96600342    1.83000004    1.76999998
   14.40694427  134.47999573    1.83000004    1.76999998
   14.41027737  130.63099670    1.83000004    1.76999998
   14.41361046  133.58299255    1.83000004    1.76999998
   14.41666698  137.26100159    1.83000004    1.76999998
   14.42250061  137.26100159    1.83000004    1.76999998
   14.42666721  146.83099365    1.83000004    1.76999998
   14.43000031  134.67399597    1.83000004    1.76999998
   14.43138885  146.11300659    1.83000004    1.76999998
   14.43361092  133.98199463    1.83000004    1.76999998
   14.43666649  139.41400146    1.83000004    1.76999998
   14.44000053  140.76699829    1.83000004    1.76999998
   14.44333363  141.94000244    1.83000004    1.76999998
   14.44666672  141.60899353    1.83000004    1.76999998
   14.44972229  142.29699707    1.83000004    1.76999998
   14.45305538  138.87800598    1.83000004    1.76999998
   14.45638847  128.46200562    1.83000004    1.76999998
   14.45972157  143.17300415    1.83000004    1.76999998
   14.46527767  143.17300415    1.83000004    1.76999998
   14.46944427  135.61500549    1.83000004    1.76999998
   14.47277737  136.77900696    1.83000004    1.76999998
   14.47583294  141.31500244    1.83000004    1.76999998
   14.47916603  136.82299805    1.83000004    1.76999998
   14.48249912  142.81399536    1.83000004    1.76999998
   14.48583317  134.28999329    1.83000004    1.76999998
   14.48888874  130.36000061    1.83000004    1.76999998
   14.49222279  133.69200134    1.83000004    1.76999998
   14.49555588  133.98100281    1.83000004    1.76999998
   14.49805546  143.24200439    1.83000004    1.76999998
   14.49916649  137.59899902    1.83000004    1.76999998
   14.50222206  138.92799377    1.83000004    1.76999998
   14.50805569  138.92799377    1.83000004    1.76999998
   14.51222229  125.41500092    1.83000004    1.76999998
   14.51555538  138.86799622    1.83000004    1.76999998
   14.51888847  130.49899292    1.83000004    1.76999998
   14.52222157  119.06600189    1.83000004    1.76999998
   14.52555561  134.14900208    1.83000004    1.76999998
   14.52861118  137.80499268    1.83000004    1.76999998
   14.53138828  125.20600128    1.83000004    1.76999998
   14.53249931  137.90400696    1.83000004    1.76999998
   14.53555584  134.32299805    1.83000004    1.76999998
   14.53888893  130.49400330    1.83000004    1.76999998
   14.54222298  125.12999725    1.83000004    1.76999998
   14.54555607  131.23399353    1.83000004    1.76999998
   14.55083370  131.23399353    1.83000004    1.76999998
   14.55500031  141.17999268    1.83000004    1.76999998
   14.55833340  136.18899536    1.83000004    1.76999998
   14.56166649  133.14799500    1.83000004    1.76999998
   14.56472206  133.37500000    1.83000004    1.76999998
   14.56555557  134.35800171    1.83000004    1.76999998
   14.56888866  139.03799438    1.83000004    1.76999998
   14.57194424  125.93000031    1.83000004    1.76999998
   14.57527733  137.38999939    1.83000004    1.76999998
   14.57861137  136.27400208    1.83000004    1.76999998
   14.58194447  131.44099426    1.83000004    1.76999998
   14.58500004  136.09800720    1.83000004    1.76999998
   14.58833313  139.97900391    1.83000004    1.76999998
   14.59388828  139.97900391    1.83000004    1.76999998
   14.59805489  143.61999512    1.83000004    1.76999998
   14.59861088  134.34399414    1.83000004    1.76999998
   14.60166740  135.67999268    1.83000004    1.76999998
   14.60500050  132.94599915    1.83000004    1.76999998
   14.60833359  133.78300476    1.83000004    1.76999998
   14.61166668  129.53799438    1.83000004    1.76999998
   14.61500072  128.28799438    1.83000004    1.76999998
   14.61805534  132.01600647    1.83000004    1.76999998
   14.62138939  133.72300720    1.83000004    1.76999998
   14.62472248  132.34100342    1.83000004    1.76999998
   14.62805557  143.92500305    1.83000004    1.76999998
   14.63111115  132.86700439    1.83000004    1.76999998
   14.63166714  141.16299438    1.83000004    1.76999998
   14.63666630  141.16299438    1.83000004    1.76999998
   14.64083290  132.52499390    1.83000004    1.76999998
   14.64416695  136.55099487    1.83000004    1.76999998
   14.64722252  135.53399658    1.83000004    1.76999998
   14.65055561  129.73599243    1.83000004    1.76999998
   14.65388870  139.77099609    1.83000004    1.76999998
   14.65722179  137.16499329    1.83000004    1.76999998
   14.66055489  140.13499451    1.83000004    1.76999998
   14.66388893  131.92500305    1.83000004    1.76999998
   14.66499996  127.67500305    1.83000004    1.76999998
   14.66750050  135.97399902    1.83000004    1.76999998
   14.67083359  137.47599792    1.83000004    1.76999998
   14.67416668  145.27999878    1.83000004    1.76999998
   14.67972279  145.27999878    1.83000004    1.76999998
   14.68388939  128.35699463    1.83000004    1.76999998
   14.68722248  133.13999939    1.83000004    1.76999998
   14.69027805  142.79200745    1.83000004    1.76999998
   14.69361115  139.10499573    1.83000004    1.76999998
   14.69694424  142.91099548    1.83000004    1.76999998
   14.69833374  130.53100586    1.83000004    1.76999998
   14.70055580  130.10400391    1.83000004    1.76999998
   14.70388889  161.93400574    1.83000004    1.76999998
   14.70722198  133.62600708    1.83000004    1.76999998
   14.71055508  148.77000427    1.83000004    1.76999998
   14.71361065  133.00399780    1.83000004    1.76999998
   14.71694374  133.51400757    1.83000004    1.76999998
   14.72222137  133.51400757    1.83000004    1.76999998
   14.72638798  129.74099731    1.83000004    1.76999998
   14.72972202  132.70500183    1.83000004    1.76999998
   14.73166656  141.75500488    1.83000004    1.76999998
   14.73333359  144.21000671    1.83000004    1.76999998
   14.73666668  132.62199402    1.83000004    1.76999998
   14.74000072  135.38200378    1.83000004    1.76999998
   14.74333382  136.59700012    1.83000004    1.76999998
   14.74666691  142.79400635    1.83000004    1.76999998
   14.74972248  143.12899780    1.83000004    1.76999998
   14.75305557  137.39599609    1.83000004    1.76999998
   14.75638866  127.83000183    1.83000004    1.76999998
   14.75972176  146.28100586    1.83000004    1.76999998
   14.76527786  146.28100586    1.83000004    1.76999998
   14.76944447  133.88200378    1.83000004    1.76999998
   14.77250004  136.91700745    1.83000004    1.76999998
   14.77583313  137.41000366    1.83000004    1.76999998
   14.77916622  129.90800476    1.83000004    1.76999998
   14.78249931  127.27300262    1.83000004    1.76999998
   14.78555584  138.75000000    1.83000004    1.76999998
   14.78888893  123.60199738    1.83000004    1.76999998
   14.79222298  121.62300110    1.83000004    1.76999998
   14.79555607  125.27200317    1.83000004    1.76999998
   14.79833412  141.25900269    1.83000004    1.76999998
   14.79916668  132.07600403    1.83000004    1.76999998
   14.80249977  129.27200317    1.83000004    1.76999998
   14.80805588  129.27200317    1.83000004    1.76999998
   14.81222248  132.72399902    1.83000004    1.76999998
   14.81555557  124.75099945    1.83000004    1.76999998
   14.81888866  129.10800171    1.83000004    1.76999998
   14.82222176  131.70500183    1.83000004    1.76999998
   14.82527733  126.27899933    1.83000004    1.76999998
   14.82861137  132.06199646    1.83000004    1.76999998
   14.83166695  132.16600037    1.83000004    1.76999998
   14.83222198  138.29299927    1.83000004    1.76999998
   14.83555508  133.67500305    1.83000004    1.76999998
   14.83888817  129.05700684    1.83000004    1.76999998
   14.84194374  125.18299866    1.83000004    1.76999998
   14.84527779  128.22200012    1.83000004    1.76999998
   14.85083389  128.22200012    1.83000004    1.76999998
   14.85500050  125.74800110    1.83000004    1.76999998
   14.85833359  131.42700195    1.83000004    1.76999998
   14.86166668  130.70199585    1.83000004    1.76999998
   14.86500072  143.47300720    1.83000004    1.76999998
   14.86555576  137.08000183    1.83000004    1.76999998
   14.86861134  131.56399536    1.83000004    1.76999998
   14.87194443  126.57599640    1.83000004    1.76999998
   14.87527752  131.53399658    1.83000004    1.76999998
   14.87861156  138.91400146    1.83000004    1.76999998
   14.88166714  133.77200317    1.83000004    1.76999998
   14.88500023  130.73399353    1.83000004    1.76999998
   14.88833332  131.18299866    1.83000004    1.76999998
   14.89361095  131.18299866    1.83000004    1.76999998
   14.89777756  127.97399902    1.83000004    1.76999998
   14.89888859  131.98800659    1.83000004    1.76999998
   14.90138817  123.79900360    1.83000004    1.76999998
   14.90472221  125.46399689    1.83000004    1.76999998
   14.90805531  129.59100342    1.83000004    1.76999998
   14.91138840  129.99400330    1.83000004    1.76999998
   14.91444397  133.50900269    1.83000004    1.76999998
   14.91777802  125.99900055    1.83000004    1.76999998
   14.92111111  133.25999451    1.83000004    1.76999998
   14.92444515  130.29400635    1.83000004    1.76999998
   14.92777824  134.52200317    1.83000004    1.76999998
   14.93083382  135.18499756    1.83000004    1.76999998
   14.93222237  123.25000000    1.83000004    1.76999998
   14.93666649  123.25000000    1.83000004    1.76999998
   14.94083309  128.88800049    1.83000004    1.76999998
   14.94388866  131.98800659    1.83000004    1.76999998
   14.94722271  128.97599792    1.83000004    1.76999998
   14.95055580  132.55799866    1.83000004    1.76999998
   14.95388889  135.77099609    1.83000004    1.76999998
   14.95694447  137.50199890    1.83000004    1.76999998
   14.96027756  132.15699768    1.83000004    1.76999998
   14.96361065  136.58599854    1.83000004    1.76999998
   14.96555519  141.86599731    1.83000004    1.76999998
   14.96722221  131.69099426    1.83000004    1.76999998
   14.97055531  129.61099243    1.83000004    1.76999998
   14.97388840  142.01499939    1.83000004    1.76999998
   14.97944355  142.01499939    1.83000004    1.76999998
   14.98361111  125.43199921    1.83000004    1.76999998
   14.98694515  153.59100342    1.83000004    1.76999998
   14.99027824  126.41300201    1.83000004    1.76999998
   14.99333382  141.44700623    1.83000004    1.76999998
   14.99666691  131.29400635    1.83000004    1.76999998
   14.99888897  130.60600281    1.83000004    1.76999998
   15.00027752  130.70100403    1.83000004    1.76999998
   15.00361156  130.69999695    1.83000004    1.76999998
   15.00694466  134.96400452    1.83000004    1.76999998
   15.01027775  123.73999786    1.83000004    1.76999998
   15.01333332  131.22999573    1.83000004    1.76999998
   15.01666641  130.73399353    1.83000004    1.76999998
   15.02222157  130.73399353    1.83000004    1.76999998
   15.02638817  128.86999512    1.83000004    1.76999998
   15.02972221  134.57800293    1.83000004    1.76999998
   15.03222179  126.76899719    1.83000004    1.76999998
   15.03333378  128.53500366    1.83000004    1.76999998
   15.03666687  130.94799805    1.83000004    1.76999998
   15.04000092  140.52600098    1.83000004    1.76999998
   15.04333401  136.64599609    1.83000004    1.76999998
   15.04638958  129.66700745    1.83000004    1.76999998
   15.04972267  138.99000549    1.83000004    1.76999998
   15.05305576  131.50900269    1.83000004    1.76999998
   15.05638885  138.14199829    1.83000004    1.76999998
   15.05944443  132.66000366    1.83000004    1.76999998
   15.08166695  138.61000061    1.83000004    1.76999998
   15.08222198  136.53900146    1.83000004    1.76999998
   15.08277798  134.03500366    1.83000004    1.76999998
   15.08583260  142.70399475    1.83000004    1.76999998
   15.08916664  134.35400391    1.83000004    1.76999998
   15.09249973  141.39300537    1.83000004    1.76999998
   15.09583282  141.63000488    1.83000004    1.76999998
   15.09888840  131.69799805    1.83000004    1.76999998
   15.10222244  136.01699829    1.83000004    1.76999998
   15.10805607  136.01699829    1.83000004    1.76999998
   15.11222267  136.71400452    1.83000004    1.76999998
   15.11527824  138.59100342    1.83000004    1.76999998
   15.11611176  129.54200745    1.83000004    1.76999998
   15.11888885  127.62899780    1.83000004    1.76999998
   15.12222195  132.55599976    1.83000004    1.76999998
   15.12555599  144.04699707    1.83000004    1.76999998
   15.12888908  138.98899841    1.83000004    1.76999998
   15.13194466  135.42300415    1.83000004    1.76999998
   15.13527775  135.44400024    1.83000004    1.76999998
   15.13861084  141.23899841    1.83000004    1.76999998
   15.14194393  137.12899780    1.83000004    1.76999998
   15.14527798  132.55700684    1.83000004    1.76999998
   15.15083313  132.55700684    1.83000004    1.76999998
   15.15499973  132.91299438    1.83000004    1.76999998
   15.15833282  130.70300293    1.83000004    1.76999998
   15.16166592  134.61500549    1.83000004    1.76999998
   15.16472149  135.53999329    1.83000004    1.76999998
   15.16805553  136.72300720    1.83000004    1.76999998
   15.17138958  128.75900269    1.83000004    1.76999998
   15.17472267  131.09100342    1.83000004    1.76999998
   15.17805576  131.05999756    1.83000004    1.76999998
   15.18111134  136.00599670    1.83000004    1.76999998
   15.18277836  130.74699402    1.83000004    1.76999998
   15.18472195  132.00300598    1.83000004    1.76999998
   15.18805599  138.44599915    1.83000004    1.76999998
   15.19361115  138.44599915    1.83000004    1.76999998
   15.19777775  159.96400452    1.83000004    1.76999998
   15.20111084  181.91600037    1.83000004    1.76999998
   15.20444393  183.40800476    1.83000004    1.76999998
   15.20777798  169.55299377    1.83000004    1.76999998
   15.21083355  174.00799561    1.83000004    1.76999998
   15.21416664  150.44900513    1.83000004    1.76999998
   15.21611118  145.92399597    1.83000004    1.76999998
   15.21805477  138.42599487    1.83000004    1.76999998
   15.22111034  129.22799683    1.83000004    1.76999998
   15.22444439  135.40100098    1.83000004    1.76999998
   15.22777748  143.94799805    1.83000004    1.76999998
   15.23083305  136.19400024    1.83000004    1.76999998
   15.23666668  136.19400024    1.83000004    1.76999998
   15.24083328  134.85299683    1.83000004    1.76999998
   15.24388885  137.36099243    1.83000004    1.76999998
   15.24722290  125.95700073    1.83000004    1.76999998
   15.24944496  129.55900574    1.83000004    1.76999998
   15.25083351  131.33299255    1.83000004    1.76999998
   15.25416660  132.88900757    1.83000004    1.76999998
   15.25749969  137.91799927    1.83000004    1.76999998
   15.36138916   -1.00000000   -1.00000000   -1.00000000
   15.46361065   -1.00000000   -1.00000000   -1.00000000
   15.56500053   -1.00000000   -1.00000000   -1.00000000
   15.60000038  164.41200256    1.83000004    1.76999998
   15.60305595  153.63000488    1.83000004    1.76999998
   15.60638905  158.16400146    1.83000004    1.76999998
   15.60972214  146.94299316    1.83000004    1.76999998
   15.61305618  151.82699585    1.83000004    1.76999998
   15.61611176  150.92100525    1.83000004    1.76999998
   15.62027836  150.92100525    1.83000004    1.76999998
   15.62444496  143.80599976    1.83000004    1.76999998
   15.62777805  141.33299255    1.83000004    1.76999998
   15.63111115  147.53700256    1.83000004    1.76999998
   15.63305569  143.59399414    1.83000004    1.76999998
   15.63472176  137.73500061    1.83000004    1.76999998
   15.63805580  142.02400208    1.83000004    1.76999998
   15.64138889  150.44799805    1.83000004    1.76999998
   15.64444447  148.75100708    1.83000004    1.76999998
   15.64777756  150.26800537    1.83000004    1.76999998
   15.65111065  135.02400208    1.83000004    1.76999998
   15.65444374  147.24899292    1.83000004    1.76999998
   15.65749931  137.48599243    1.83000004    1.76999998
   15.66333294  137.48599243    1.83000004    1.76999998
   15.66750050  143.60000610    1.83000004    1.76999998
   15.67055607  141.84399414    1.83000004    1.76999998
   15.67416668  134.64199829    1.83000004    1.76999998
   15.67722225  131.22900391    1.83000004    1.76999998
   15.68055630  161.75700378    1.83000004    1.76999998
   15.68388939  134.23599243    1.83000004    1.76999998
   15.68722248  134.30000305    1.83000004    1.76999998
   15.69027805  124.75399780    1.83000004    1.76999998
   15.69361115  136.03199768    1.83000004    1.76999998
   15.69694424  146.12300110    1.83000004    1.76999998
   15.69972229  135.26899719    1.83000004    1.76999998
   15.70055580  150.63299561    1.83000004    1.76999998
   15.70611095  150.63299561    1.83000004    1.76999998
   15.71027756  144.99299622    1.83000004    1.76999998
   15.71361065  133.47000122    1.83000004    1.76999998
   15.71694374  126.71600342    1.83000004    1.76999998
   15.71999931  120.99600220    1.83000004    1.76999998
   15.72333336  133.86500549    1.83000004    1.76999998
   15.72666645  134.68899536    1.83000004    1.76999998
   15.72999954  131.40499878    1.83000004    1.76999998
   15.73305511  125.49299622    1.83000004    1.76999998
   15.73361111  150.76199341    1.83000004    1.76999998
   15.73694515  129.47700500    1.83000004    1.76999998
   15.74027824  134.00399780    1.83000004    1.76999998
   15.74333382  140.18499756    1.83000004    1.76999998
   15.74888897  140.18499756    1.83000004    1.76999998
   15.75305557  135.06399536    1.83000004    1.76999998
   15.75638866  132.13999939    1.83000004    1.76999998
   15.75972176  144.89999390    1.83000004    1.76999998
   15.76305580  130.87899780    1.83000004    1.76999998
   15.76611137  131.44900513    1.83000004    1.76999998
   15.76666641  133.63200378    1.83000004    1.76999998
   15.76999950  131.33500671    1.83000004    1.76999998
   15.77333355  133.31199646    1.83000004    1.76999998
   15.77666664  136.83099365    1.83000004    1.76999998
   15.77972221  143.92599487    1.83000004    1.76999998
   15.78305531  133.42100525    1.83000004    1.76999998
   15.78638935  143.44299316    1.83000004    1.76999998
   15.79166698  143.44299316    1.83000004    1.76999998
   15.79583359  144.84100342    1.83000004    1.76999998
   15.79916668  139.74400330    1.83000004    1.76999998
   15.80000019  136.66099548    1.83000004    1.76999998
   15.80277824  138.86999512    1.83000004    1.76999998
   15.80611134  137.76699829    1.83000004    1.76999998
   15.80944443  127.46399689    1.83000004    1.76999998
   15.81277752  135.54699707    1.83000004    1.76999998
   15.81583309  121.10600281    1.83000004    1.76999998
   15.81916618  143.55000305    1.83000004    1.76999998
   15.82250023  146.03599548    1.83000004    1.76999998
   15.82583332  129.30000305    1.83000004    1.76999998
   15.82888889  136.07899475    1.83000004    1.76999998
   15.83472157  136.07899475    1.83000004    1.76999998
   15.83888817  131.05799866    1.83000004    1.76999998
   15.84194374  130.16700745    1.83000004    1.76999998
   15.84527779  129.95599365    1.83000004    1.76999998
   15.84861088  145.80999756    1.83000004    1.76999998
   15.85194492  130.76800537    1.83000004    1.76999998
   15.85500050  131.41099548    1.83000004    1.76999998
   15.85833359  136.75799561    1.83000004    1.76999998
   15.86166668  134.97399902    1.83000004    1.76999998
   15.86500072  133.25799561    1.83000004    1.76999998
   15.86666679  126.03299713    1.83000004    1.76999998
   15.86861134  133.91299438    1.83000004    1.76999998
   15.87194443  134.05000305    1.83000004    1.76999998
   15.87750053  134.05000305    1.83000004    1.76999998
   15.88166714  134.01600647    1.83000004    1.76999998
   15.88500023  131.77299500    1.83000004    1.76999998
   15.88833332  132.81700134    1.83000004    1.76999998
   15.89166641  139.42700195    1.83000004    1.76999998
   15.89499950  136.25100708    1.83000004    1.76999998
   15.89833355  131.96800232    1.83000004    1.76999998
   15.89999962  135.01600647    1.83000004    1.76999998
   15.90194416  141.06500244    1.83000004    1.76999998
   15.90527725  139.87300110    1.83000004    1.76999998
   15.90861034  143.97500610    1.83000004    1.76999998
   15.91166592  144.40199280    1.83000004    1.76999998
   15.91499996  149.59399414    1.83000004    1.76999998
   15.92027855  149.59399414    1.83000004    1.76999998
   15.92444515  139.53799438    1.83000004    1.76999998
   15.92777824  142.12600708    1.83000004    1.76999998
   15.93111134  127.91999817    1.83000004    1.76999998
   15.93333340  128.61399841    1.83000004    1.76999998
   15.93472195  140.40400696    1.83000004    1.76999998
   15.93805599  139.21800232    1.83000004    1.76999998
   15.94138908  139.45899963    1.83000004    1.76999998
   15.94444466  131.29600525    1.83000004    1.76999998
   15.94777775  134.74000549    1.83000004    1.76999998
   15.95111084  138.95700073    1.83000004    1.76999998
   15.95444393  135.14599609    1.83000004    1.76999998
   15.95777798  132.58200073    1.83000004    1.76999998
   15.96305561  132.58200073    1.83000004    1.76999998
   15.96722221  139.47999573    1.83000004    1.76999998
   15.97055531  143.68699646    1.83000004    1.76999998
   15.97388840  137.45799255    1.83000004    1.76999998
   15.97722149  137.17799377    1.83000004    1.76999998
   15.98027706  137.99099731    1.83000004    1.76999998
   15.98361111  140.49099731    1.83000004    1.76999998
   15.98694515  136.88299561    1.83000004    1.76999998
   15.99027824  136.10600281    1.83000004    1.76999998
   15.99333382  140.19299316    1.83000004    1.76999998
   15.99666691  140.10600281    1.83000004    1.76999998
   16.00000000  146.23899841    1.83000004    1.76999998
   16.00055504  142.62600708    1.83000004    1.76999998
   16.00611115  142.62600708    1.83000004    1.76999998
   16.01027870  138.32800293    1.83000004    1.76999998
   16.01333427  132.18899536    1.83000004    1.76999998
   16.01666641  139.55700684    1.83000004    1.76999998
   16.02000046  140.02999878    1.83000004    1.76999998
   16.02333260  135.62199402    1.83000004    1.76999998
   16.02638817  131.39599609    1.83000004    1.76999998
   16.02972221  132.24800110    1.83000004    1.76999998
   16.03305435  142.75999451    1.83000004    1.76999998
   16.03388786  141.12600708    1.83000004    1.76999998
   16.03666687  143.09700012    1.83000004    1.76999998
   16.03999901  151.35200500    1.83000004    1.76999998
   16.04305458  137.82000732    1.83000004    1.76999998
   16.04888916  137.82000732    1.83000004    1.76999998
   16.05305481  137.11799622    1.83000004    1.76999998
   16.05638885  140.83599854    1.83000004    1.76999998
   16.05944443  136.34500122    1.83000004    1.76999998
   16.06277657  142.13099670    1.83000004    1.76999998
   16.06611061  135.39399719    1.83000004    1.76999998
   16.06722260  144.12100220    1.83000004    1.76999998
   16.06972313  143.12199402    1.83000004    1.76999998
   16.07277870  132.67100525    1.83000004    1.76999998
   16.07611275  136.83999634    1.83000004    1.76999998
   16.07944489  127.75000000    1.83000004    1.76999998
   16.08277893  139.28599548    1.83000004    1.76999998
   16.08611107  138.11599731    1.83000004    1.76999998
   16.09166718  138.11599731    1.83000004    1.76999998
   16.09583473  135.98699951    1.83000004    1.76999998
   16.09916687  135.86500549    1.83000004    1.76999998
   16.10055542  152.51899719    1.83000004    1.76999998
   16.10277748  137.62800598    1.83000004    1.76999998
   16.10583305  137.28500366    1.83000004    1.76999998
   16.10916710  136.14300537    1.83000004    1.76999998
   16.11250114  138.16099548    1.83000004    1.76999998
   16.11583328  134.13900757    1.83000004    1.76999998
   16.11888885  143.30700684    1.83000004    1.76999998
   16.12222290  137.69700623    1.83000004    1.76999998
   16.12555504  145.36000061    1.83000004    1.76999998
   16.12888908  139.05400085    1.83000004    1.76999998
   16.13444519  139.05400085    1.83000004    1.76999998
   16.13861084  141.95199585    1.83000004    1.76999998
   16.14194489  138.49200439    1.83000004    1.76999998
   16.14527702  146.64199829    1.83000004    1.76999998
   16.14861107  138.06199646    1.83000004    1.76999998
   16.15194321  147.73899841    1.83000004    1.76999998
   16.15527725  145.08500671    1.83000004    1.76999998
   16.15861130  145.19799805    1.83000004    1.76999998
   16.16166687  148.41400146    1.83000004    1.76999998
   16.16499901  149.28199768    1.83000004    1.76999998
   16.16722107  147.09399414    1.83000004    1.76999998
   16.16888809  175.57899475    1.83000004    1.76999998
   16.17222214  176.56399536    1.83000004    1.76999998
   16.17749977  176.56399536    1.83000004    1.76999998
   16.18166542  157.07600403    1.83000004    1.76999998
   16.18472099  152.57499695    1.83000004    1.76999998
   16.18805504  152.61199951    1.83000004    1.76999998
   16.19138718  162.87300110    1.83000004    1.76999998
   16.19472122  159.19099426    1.83000004    1.76999998
   16.19805527  173.22599792    1.83000004    1.76999998
   16.20055580  171.02200317    1.83000004    1.76999998
   16.20166779  166.30900574    1.83000004    1.76999998
   16.20499992  157.52000427    1.83000004    1.76999998
   16.20805550  167.07800293    1.83000004    1.76999998
   16.21138954  146.32400513    1.83000004    1.76999998
   16.21472359  161.22900391    1.83000004    1.76999998
   16.22027779  161.22900391    1.83000004    1.76999998
   16.22444534  139.12899780    1.83000004    1.76999998
   16.22777748  157.82200623    1.83000004    1.76999998
   16.23083305  141.86999512    1.83000004    1.76999998
   16.23388863  152.56900024    1.83000004    1.76999998
   16.23472214  141.22999573    1.83000004    1.76999998
   16.23777771  144.27699280    1.83000004    1.76999998
   16.24111176  140.70500183    1.83000004    1.76999998
   16.24444389  137.56199646    1.83000004    1.76999998
   16.24777794  139.20799255    1.83000004    1.76999998
   16.25083351  142.14799500    1.83000004    1.76999998
   16.25416756  140.89500427    1.83000004    1.76999998
   16.25749969  138.46899414    1.83000004    1.76999998
   16.26305580  138.46899414    1.83000004    1.76999998
   16.26722145  146.22700500    1.83000004    1.76999998
   16.26777840  160.06599426    1.83000004    1.76999998
   16.27111053  146.16200256    1.83000004    1.76999998
   16.27416611  144.28599548    1.83000004    1.76999998
   16.27750015  145.04699707    1.83000004    1.76999998
   16.28083229  137.11599731    1.83000004    1.76999998
   16.28416634  142.09800720    1.83000004    1.76999998
   16.28750038  143.30799866    1.83000004    1.76999998
   16.29055595  142.93699646    1.83000004    1.76999998
   16.29388809  151.01199341    1.83000004    1.76999998
   16.29722214  148.08700562    1.83000004    1.76999998
   16.30055428  148.86599731    1.83000004    1.76999998
   16.30111122  149.08000183    1.83000004    1.76999998
   16.30583191  149.08000183    1.83000004    1.76999998
   16.30999947  146.03599548    1.83000004    1.76999998
   16.31333351  136.56100464    1.83000004    1.76999998
   16.31666756  139.80400085    1.83000004    1.76999998
   16.32000160  132.79899597    1.83000004    1.76999998
   16.32305717  144.14900208    1.83000004    1.76999998
   16.32638931  136.36900330    1.83000004    1.76999998
   16.32972336  133.48800659    1.83000004    1.76999998
   16.33305550  140.06300354    1.83000004    1.76999998
   16.33444595  134.47700500    1.83000004    1.76999998
   16.33638954  128.27999878    1.83000004    1.76999998
   16.33972359  131.86000061    1.83000004    1.76999998
   16.34305573  138.92999268    1.83000004    1.76999998
   16.34861183  138.92999268    1.83000004    1.76999998
   16.35277748  133.70599365    1.83000004    1.76999998
   16.35611153  141.13299561    1.83000004    1.76999998
   16.35944557  135.41900635    1.83000004    1.76999998
   16.36277771  134.59100342    1.83000004    1.76999998
   16.36583328  141.83900452    1.83000004    1.76999998
   16.36777878  138.23500061    1.83000004    1.76999998
   16.36972237  139.71499634    1.83000004    1.76999998
   16.37277794  136.99000549    1.83000004    1.76999998
   16.37611198  147.96400452    1.83000004    1.76999998
   16.37944412  143.44099426    1.83000004    1.76999998
   16.38277817  146.18299866    1.83000004    1.76999998
   16.38583374  141.52499390    1.83000004    1.76999998
   16.39166641  141.52499390    1.83000004    1.76999998
   16.39583397  139.25700378    1.83000004    1.76999998
   16.39916611  137.74499512    1.83000004    1.76999998
   16.40111160  142.08799744    1.83000004    1.76999998
   16.40277672  139.47700500    1.83000004    1.76999998
   16.40611076  135.40800476    1.83000004    1.76999998
   16.40944481  130.01300049    1.83000004    1.76999998
   16.41277695  136.75399780    1.83000004    1.76999998
   16.41583252  137.23100281    1.83000004    1.76999998
   16.41916656  136.01199341    1.83000004    1.76999998
   16.42249870  130.88499451    1.83000004    1.76999998
   16.42583275  135.54200745    1.83000004    1.76999998
   16.42888832  141.78300476    1.83000004    1.76999998
   16.43444443  141.78300476    1.83000004    1.76999998
   16.43861008  129.76899719    1.83000004    1.76999998
   16.44194412  137.27499390    1.83000004    1.76999998
   16.44527626  146.75300598    1.83000004    1.76999998
   16.44861031  135.81700134    1.83000004    1.76999998
   16.45166779  137.28399658    1.83000004    1.76999998
   16.45499992  142.33799744    1.83000004    1.76999998
   16.45833397  141.21000671    1.83000004    1.76999998
   16.46166801  141.47000122    1.83000004    1.76999998
   16.46500015  139.95100403    1.83000004    1.76999998
   16.46777916  144.05499268    1.83000004    1.76999998
   16.46861076  141.03799438    1.83000004    1.76999998
   16.47194481  143.61799622    1.83000004    1.76999998
   16.47722244  143.61799622    1.83000004    1.76999998
   16.48139000  133.70399475    1.83000004    1.76999998
   16.48472214  143.59399414    1.83000004    1.76999998
   16.48805618  137.71899414    1.83000004    1.76999998
   16.49138832  129.27200317    1.83000004    1.76999998
   16.49444389  142.62300110    1.83000004    1.76999998
   16.49777794  138.22099304    1.83000004    1.76999998
   16.50111198  135.26499939    1.83000004    1.76999998
   16.50166702  133.53199768    1.83000004    1.76999998
   16.50499916  147.74899292    1.83000004    1.76999998
   16.50833321  141.60000610    1.83000004    1.76999998
   16.51138878  144.37100220    1.83000004    1.76999998
   16.51472282  138.08799744    1.83000004    1.76999998
   16.52000046  138.08799744    1.83000004    1.76999998
   16.52416611  149.18899536    1.83000004    1.76999998
   16.52750015  139.84199524    1.83000004    1.76999998
   16.53083229  149.90600586    1.83000004    1.76999998
   16.53416634  143.47900391    1.83000004    1.76999998
   16.53472137  141.95500183    1.83000004    1.76999998
   16.53805542  148.67300415    1.83000004    1.76999998
   16.54138756  137.55200195    1.83000004    1.76999998
   16.54472160  141.37399292    1.83000004    1.76999998
   16.54777718  136.80499268    1.83000004    1.76999998
   16.55111122  137.84500122    1.83000004    1.76999998
   16.55444336  149.07400513    1.83000004    1.76999998
   16.55777740  140.99099731    1.83000004    1.76999998
   16.56305504  140.99099731    1.83000004    1.76999998
   16.56722260  124.95899963    1.83000004    1.76999998
   16.56805611  126.36699677    1.83000004    1.76999998
   16.57083511  138.65199280    1.83000004    1.76999998
   16.57416725  140.99699402    1.83000004    1.76999998
   16.57750130  134.11500549    1.83000004    1.76999998
   16.58055687  136.46899414    1.83000004    1.76999998
   16.58388901  144.58099365    1.83000004    1.76999998
   16.58722305  138.42999268    1.83000004    1.76999998
   16.59055710  136.57800293    1.83000004    1.76999998
   16.59388924  137.92700195    1.83000004    1.76999998
   16.59694481  122.80400085    1.83000004    1.76999998
   16.60027885  129.57000732    1.83000004    1.76999998
   16.61750031  131.58099365    1.83000004    1.76999998
   16.62166595  131.58099365    1.83000004    1.76999998
   16.62583351  148.05299377    1.83000004    1.76999998
   16.62888908  136.94999695    1.83000004    1.76999998
   16.63222313  132.54400635    1.83000004    1.76999998
   16.63555527  146.82699585    1.83000004    1.76999998
   16.63888931  143.30000305    1.83000004    1.76999998
   16.64194489  140.40299988    1.83000004    1.76999998
   16.64527702  144.12800598    1.83000004    1.76999998
   16.64861107  140.20799255    1.83000004    1.76999998
   16.65055466  132.67900085    1.83000004    1.76999998
   16.65222168  134.75500488    1.83000004    1.76999998
   16.65555573  137.37500000    1.83000004    1.76999998
   16.65888786  140.73300171    1.83000004    1.76999998
   16.66444397  140.73300171    1.83000004    1.76999998
   16.66860962  136.28999329    1.83000004    1.76999998
   16.67194366  146.91400146    1.83000004    1.76999998
   16.67499924  146.39500427    1.83000004    1.76999998
   16.67833328  144.70899963    1.83000004    1.76999998
   16.68166542  135.94999695    1.83000004    1.76999998
   16.68388748  136.85899353    1.83000004    1.76999998
   16.68527603  139.39100647    1.83000004    1.76999998
   16.68861008  136.76100159    1.83000004    1.76999998
   16.69194412  140.85600281    1.83000004    1.76999998
   16.69527626  140.11300659    1.83000004    1.76999998
   16.69833183  140.11999512    1.83000004    1.76999998
   16.70166779  139.07499695    1.83000004    1.76999998
   16.70722389  139.07499695    1.83000004    1.76999998
   16.71138954  138.25000000    1.83000004    1.76999998
   16.71472359  143.04899597    1.83000004    1.76999998
   16.71722221  139.72300720    1.83000004    1.76999998
   16.71833420  137.29600525    1.83000004    1.76999998
   16.72166634  133.43899536    1.83000004    1.76999998
   16.72500038  141.16200256    1.83000004    1.76999998
   16.72805595  141.32600403    1.83000004    1.76999998
   16.73139000  140.71299744    1.83000004    1.76999998
   16.73472214  141.87699890    1.83000004    1.76999998
   16.73805618  142.41400146    1.83000004    1.76999998
   16.74111176  141.72000122    1.83000004    1.76999998
   16.74444389  149.13299561    1.83000004    1.76999998
   16.75000000  149.13299561    1.83000004    1.76999998
   16.75416756  140.86799622    1.83000004    1.76999998
   16.75749969  139.42900085    1.83000004    1.76999998
   16.76083374  130.83099365    1.83000004    1.76999998
   16.76416588  134.06900024    1.83000004    1.76999998
   16.76722145  129.46800232    1.83000004    1.76999998
   16.77055550  132.39700317    1.83000004    1.76999998
   16.77388954  125.85199738    1.83000004    1.76999998
   16.77722168  126.94200134    1.83000004    1.76999998
   16.78027725  140.73199463    1.83000004    1.76999998
   16.78361130  136.82000732    1.83000004    1.76999998
   16.78527641  132.52200317    1.83000004    1.76999998
   16.78750038  127.76100159    1.83000004    1.76999998
   16.79305458  127.76100159    1.83000004    1.76999998
   16.79722214  131.51100159    1.83000004    1.76999998
   16.80027771  139.95199585    1.83000004    1.76999998
   16.80360985  138.06799316    1.83000004    1.76999998
   16.80694389  135.71099854    1.83000004    1.76999998
   16.81027794  131.22900391    1.83000004    1.76999998
   16.81361008  125.08599854    1.83000004    1.76999998
   16.81666756  129.25900269    1.83000004    1.76999998
   16.81861115  137.72399902    1.83000004    1.76999998
   16.82055664  130.53900146    1.83000004    1.76999998
   16.82361221  146.43699646    1.83000004    1.76999998
   16.82694626  165.43299866    1.83000004    1.76999998
   16.83027840  140.91999817    1.83000004    1.76999998
   16.83583450  140.91999817    1.83000004    1.76999998
   16.84000015  213.98800659    1.83000004    1.76999998
   16.84333420  189.68699646    1.83000004    1.76999998
   16.84638977  238.31199646    1.83000004    1.76999998
   16.84972191  237.97799683    1.83000004    1.76999998
   16.85194397  212.18600464    1.83000004    1.76999998
   16.85333443  213.08500671    1.83000004    1.76999998
   16.85666656  199.34300232    1.83000004    1.76999998
   16.86000061  206.30999756    1.83000004    1.76999998
   16.86305618  187.33599854    1.83000004    1.76999998
   16.86638832  180.70399475    1.83000004    1.76999998
   16.86972237  178.32699585    1.83000004    1.76999998
   16.87305641  189.82099915    1.83000004    1.76999998
   16.87861061  189.82099915    1.83000004    1.76999998
   16.88277817  176.78300476    1.83000004    1.76999998
   16.88527679  160.26199341    1.83000004    1.76999998
   16.88638878  176.21400452    1.83000004    1.76999998
   16.88972282  180.45799255    1.83000004    1.76999998
   16.89305496  171.98899841    1.83000004    1.76999998
   16.89611053  176.28999329    1.83000004    1.76999998
   16.89944458  160.52400208    1.83000004    1.76999998
   16.90277672  158.02099609    1.83000004    1.76999998
   16.90611076  189.13900757    1.83000004    1.76999998
   16.90916634  156.61000061    1.83000004    1.76999998
   16.91250038  166.41700745    1.83000004    1.76999998
   16.91583252  160.58500671    1.83000004    1.76999998
   16.92138863  160.58500671    1.83000004    1.76999998
   16.92555428  177.05900574    1.83000004    1.76999998
   16.92888832  159.72500610    1.83000004    1.76999998
   16.93222237  172.01600647    1.83000004    1.76999998
   16.93555450  167.94799805    1.83000004    1.76999998
   16.93861008  138.66099548    1.83000004    1.76999998
   16.94194412  164.81900024    1.83000004    1.76999998
   16.94527626  156.18600464    1.83000004    1.76999998
   16.94861031  158.36700439    1.83000004    1.76999998
   16.95166779  182.08099365    1.83000004    1.76999998
   16.95222282  170.08399963    1.83000004    1.76999998
   16.95555687  172.80299377    1.83000004    1.76999998
   16.95861244  150.27999878    1.83000004    1.76999998
   16.96416664  150.27999878    1.83000004    1.76999998
   16.96861076  159.72500610    1.83000004    1.76999998
   16.97166634  144.02099609    1.83000004    1.76999998
   16.97500038  169.37699890    1.83000004    1.76999998
   16.97833443  163.76699829    1.83000004    1.76999998
   16.98166656  162.77600098    1.83000004    1.76999998
   16.98500061  165.77499390    1.83000004    1.76999998
   16.98583412  156.22000122    1.83000004    1.76999998
   16.98861122  152.01199341    1.83000004    1.76999998
   16.99194527  163.37300110    1.83000004    1.76999998
   16.99527740  156.86199951    1.83000004    1.76999998
   16.99861145  162.46000671    1.83000004    1.76999998
   17.00166702  163.49699402    1.83000004    1.76999998
   17.00722313  163.49699402    1.83000004    1.76999998
   17.01138878  144.37699890    1.83000004    1.76999998
   17.01472282  147.27200317    1.83000004    1.76999998
   17.01777840  167.41400146    1.83000004    1.76999998
   17.01916695  149.87800598    1.83000004    1.76999998
   17.02138901  149.48500061    1.83000004    1.76999998
   17.02472115  144.01899719    1.83000004    1.76999998
   17.02805519  150.47700500    1.83000004    1.76999998
   17.03111076  140.60299683    1.83000004    1.76999998
   17.03472137  146.75199890    1.83000004    1.76999998
   17.03805542  151.95899963    1.83000004    1.76999998
   17.04111099  156.61500549    1.83000004    1.76999998
   17.04444313  145.17199707    1.83000004    1.76999998
   17.04999924  145.17199707    1.83000004    1.76999998
   17.05416679  137.57499695    1.83000004    1.76999998
   17.05749893  138.02799988    1.83000004    1.76999998
   17.06083298  136.78399658    1.83000004    1.76999998
   17.06416512  143.48899841    1.83000004    1.76999998
   17.06750107  141.37199402    1.83000004    1.76999998
   17.07055664  135.11500549    1.83000004    1.76999998
   17.07389069  137.63999939    1.83000004    1.76999998
   17.07722282  138.12699890    1.83000004    1.76999998
   17.08055687  137.37399292    1.83000004    1.76999998
   17.08361244  138.51699829    1.83000004    1.76999998
   17.08583450  142.42999268    1.83000004    1.76999998
   17.08750153  141.10600281    1.83000004    1.76999998
   17.09277916  141.10600281    1.83000004    1.76999998
   17.09694481  144.43600464    1.83000004    1.76999998
   17.10027885  141.40400696    1.83000004    1.76999998
   17.10361099  139.08000183    1.83000004    1.76999998
   17.10694504  141.28300476    1.83000004    1.76999998
   17.11000061  142.38299561    1.83000004    1.76999998
   17.11333466  146.45100403    1.83000004    1.76999998
   17.11666679  136.32299805    1.83000004    1.76999998
   17.11916733  142.56799316    1.83000004    1.76999998
   17.12027740  148.09599304    1.83000004    1.76999998
   17.12361145  141.19299316    1.83000004    1.76999998
   17.12666702  147.93099976    1.83000004    1.76999998
   17.13000107  139.14700317    1.83000004    1.76999998
   17.13555527  139.14700317    1.83000004    1.76999998
   17.13999939  137.41999817    1.83000004    1.76999998
   17.14305496  136.78500366    1.83000004    1.76999998
   17.14638901  135.49800110    1.83000004    1.76999998
   17.14972115  138.36900330    1.83000004    1.76999998
   17.15250015  136.70700073    1.83000004    1.76999998
   17.15333366  138.88600159    1.83000004    1.76999998
   17.15666580  136.54699707    1.83000004    1.76999998
   17.15999985  134.41200256    1.83000004    1.76999998
   17.16305542  139.95700073    1.83000004    1.76999998
   17.16638756  142.23899841    1.83000004    1.76999998
   17.16972160  138.96400452    1.83000004    1.76999998
   17.17305565  145.07899475    1.83000004    1.76999998
   17.17860985  145.07899475    1.83000004    1.76999998
   17.18277740  140.78999329    1.83000004    1.76999998
   17.18583298  131.14900208    1.83000004    1.76999998
   17.18638802  142.49699402    1.83000004    1.76999998
   17.18972206  130.61099243    1.83000004    1.76999998
   17.19305420  134.97599792    1.83000004    1.76999998
   17.19610977  138.63400269    1.83000004    1.76999998
   17.19944382  138.00999451    1.83000004    1.76999998
   17.20277786  135.25399780    1.83000004    1.76999998
   17.20611191  140.86599731    1.83000004    1.76999998
   17.20944595  133.37300110    1.83000004    1.76999998
   17.21277809  135.30099487    1.83000004    1.76999998
   17.21583366  136.46699524    1.83000004    1.76999998
   17.22138977  136.46699524    1.83000004    1.76999998
   17.22555542  134.19000244    1.83000004    1.76999998
   17.22888947  135.14300537    1.83000004    1.76999998
   17.23222351  134.35200500    1.83000004    1.76999998
   17.23527718  135.45899963    1.83000004    1.76999998
   17.23861122  139.25999451    1.83000004    1.76999998
   17.24194527  133.98599243    1.83000004    1.76999998
   17.24527740  135.96000671    1.83000004    1.76999998
   17.24833298  134.26600647    1.83000004    1.76999998
   17.25166702  138.18499756    1.83000004    1.76999998
   17.25250053  131.43200684    1.83000004    1.76999998
   17.25527763  135.90400696    1.83000004    1.76999998
   17.25861168  134.99000549    1.83000004    1.76999998
   17.26416588  134.99000549    1.83000004    1.76999998
   17.26833344  140.65699768    1.83000004    1.76999998
   17.27166557  144.14399719    1.83000004    1.76999998
   17.27499962  140.67399597    1.83000004    1.76999998
   17.27805519  134.89100647    1.83000004    1.76999998
   17.28138924  132.20500183    1.83000004    1.76999998
   17.28472137  135.63299561    1.83000004    1.76999998
   17.28610992  140.05099487    1.83000004    1.76999998
   17.28833199  142.82400513    1.83000004    1.76999998
   17.29166603  139.96099854    1.83000004    1.76999998
   17.29500008  141.24400330    1.83000004    1.76999998
   17.29833221  132.55099487    1.83000004    1.76999998
   17.30138779  137.60600281    1.83000004    1.76999998
   17.30694389  137.60600281    1.83000004    1.76999998
   17.31138802  135.17500305    1.83000004    1.76999998
   17.31444359  135.98300171    1.83000004    1.76999998
   17.31777954  133.01400757    1.83000004    1.76999998
   17.31944466  143.60499573    1.83000004    1.76999998
   17.32139015  132.42999268    1.83000004    1.76999998
   17.32472229  138.11500549    1.83000004    1.76999998
   17.32805634  136.61700439    1.83000004    1.76999998
   17.33111191  132.08299255    1.83000004    1.76999998
   17.33444595  134.15600586    1.83000004    1.76999998
   17.33777809  135.74600220    1.83000004    1.76999998
   17.34111214  135.82099915    1.83000004    1.76999998
   17.34416771  132.35200500    1.83000004    1.76999998
   17.35000038  132.35200500    1.83000004    1.76999998
   17.35416794  134.26400757    1.83000004    1.76999998
   17.35722351  133.13099670    1.83000004    1.76999998
   17.36055565  133.09899902    1.83000004    1.76999998
   17.36388969  139.75100708    1.83000004    1.76999998
   17.36722183  136.85400391    1.83000004    1.76999998
   17.37027740  126.21900177    1.83000004    1.76999998
   17.37361145  136.38600159    1.83000004    1.76999998
   17.37694550  128.28300476    1.83000004    1.76999998
   17.38027763  127.03900146    1.83000004    1.76999998
   17.38361168  129.41099548    1.83000004    1.76999998
   17.38611031  132.82299805    1.83000004    1.76999998
   17.38722229  127.78500366    1.83000004    1.76999998
   17.39277840  127.78500366    1.83000004    1.76999998
   17.39694405  136.24400330    1.83000004    1.76999998
   17.40027809  138.87600708    1.83000004    1.76999998
   17.40361023  142.65699768    1.83000004    1.76999998
   17.40666580  145.27400208    1.83000004    1.76999998
   17.40999985  138.47999573    1.83000004    1.76999998
   17.41333389  143.12300110    1.83000004    1.76999998
   17.41666603  148.46600342    1.83000004    1.76999998
   17.41944313  142.14500427    1.83000004    1.76999998
   17.42027664  151.47700500    1.83000004    1.76999998
   17.42361069  140.39199829    1.83000004    1.76999998
   17.42666626  134.69700623    1.83000004    1.76999998
   17.43000031  135.93400574    1.83000004    1.76999998
   17.43555450  135.93400574    1.83000004    1.76999998
   17.43972206  140.58799744    1.83000004    1.76999998
   17.44305420  142.16799927    1.83000004    1.76999998
   17.44638824  132.38999939    1.83000004    1.76999998
   17.44944382  139.95799255    1.83000004    1.76999998
   17.45277786  138.58399963    1.83000004    1.76999998
   17.45333481  129.26100159    1.83000004    1.76999998
   17.45666695  143.11700439    1.83000004    1.76999998
   17.45972252  138.06399536    1.83000004    1.76999998
   17.46305656  139.35699463    1.83000004    1.76999998
   17.46638870  137.11900330    1.83000004    1.76999998
   17.46972275  136.59700012    1.83000004    1.76999998
   17.47277832  134.48800659    1.83000004    1.76999998
   17.47833443  134.48800659    1.83000004    1.76999998
   17.48250008  137.89399719    1.83000004    1.76999998
   17.48583412  133.15299988    1.83000004    1.76999998
   17.48638916  130.07400513    1.83000004    1.76999998
   17.48972321  134.42500305    1.83000004    1.76999998
   17.49305534  137.13499451    1.83000004    1.76999998
   17.49611092  145.45599365    1.83000004    1.76999998
   17.49944496  132.24000549    1.83000004    1.76999998
   17.50277710  138.25700378    1.83000004    1.76999998
   17.50611115  138.49600220    1.83000004    1.76999998
   17.50944519  141.00000000    1.83000004    1.76999998
   17.51250076  142.70599365    1.83000004    1.76999998
   17.51583290  143.19200134    1.83000004    1.76999998
   17.52138901  143.19200134    1.83000004    1.76999998
   17.52555466  134.36999512    1.83000004    1.76999998
   17.52888870  136.65899658    1.83000004    1.76999998
   17.53194427  134.14399719    1.83000004    1.76999998
   17.53527641  136.62699890    1.83000004    1.76999998
   17.53861046  135.38900757    1.83000004    1.76999998
   17.54194450  135.89700317    1.83000004    1.76999998
   17.54500008  131.99499512    1.83000004    1.76999998
   17.54833221  131.16299438    1.83000004    1.76999998
   17.55166626  133.92999268    1.83000004    1.76999998
   17.55305481  136.33799744    1.83000004    1.76999998
   17.55527687  135.44799805    1.83000004    1.76999998
   17.55861092  135.69099426    1.83000004    1.76999998
   17.56444359  135.69099426    1.83000004    1.76999998
   17.56833458  136.14500427    1.83000004    1.76999998
   17.57166672  143.09700012    1.83000004    1.76999998
   17.57500076  142.96499634    1.83000004    1.76999998
   17.57833481  131.52200317    1.83000004    1.76999998
   17.58139038  139.40600586    1.83000004    1.76999998
   17.58472252  137.58399963    1.83000004    1.76999998
   17.58638954  137.16200256    1.83000004    1.76999998
   17.58833313  131.77099609    1.83000004    1.76999998
   17.59166718  131.77299500    1.83000004    1.76999998
   17.59472275  144.14100647    1.83000004    1.76999998
   17.59805679  136.04899597    1.83000004    1.76999998
   17.60138893  139.14599609    1.83000004    1.76999998
   17.60694504  139.14599609    1.83000004    1.76999998
   17.61111069  144.65499878    1.83000004    1.76999998
   17.61444473  134.72900391    1.83000004    1.76999998
   17.61777878  140.48399353    1.83000004    1.76999998
   17.63472176  139.94999695    1.83000004    1.76999998
   17.63777733  138.86799622    1.83000004    1.76999998
   17.64111137  143.09700012    1.83000004    1.76999998
   17.64444351  137.87600708    1.83000004    1.76999998
   17.64999962  137.87600708    1.83000004    1.76999998
   17.65416718  142.12899780    1.83000004    1.76999998
   17.65722275  136.09100342    1.83000004    1.76999998
   17.66055489  138.95300293    1.83000004    1.76999998
   17.66388893  141.27699280    1.83000004    1.76999998
   17.66722107  140.27999878    1.83000004    1.76999998
   17.66805458  144.52200317    1.83000004    1.76999998
   17.67083359  140.69599915    1.83000004    1.76999998
   17.67416573  140.77200317    1.83000004    1.76999998
   17.67722130  143.66900635    1.83000004    1.76999998
   17.68055534  139.07699585    1.83000004    1.76999998
   17.68388748  143.98300171    1.83000004    1.76999998
   17.68722153  145.43699646    1.83000004    1.76999998
   17.69277763  145.43699646    1.83000004    1.76999998
   17.69694328  146.54499817    1.83000004    1.76999998
   17.70027924  146.68499756    1.83000004    1.76999998
   17.70138931  150.23100281    1.83000004    1.76999998
   17.70388985  134.99600220    1.83000004    1.76999998
   17.70722389  140.05599976    1.83000004    1.76999998
   17.71027946  135.66600037    1.83000004    1.76999998
   17.71361160  139.88900757    1.83000004    1.76999998
   17.71694565  139.52799988    1.83000004    1.76999998
   17.72027779  139.25199890    1.83000004    1.76999998
   17.72333336  137.99000549    1.83000004    1.76999998
   17.72666740  145.85299683    1.83000004    1.76999998
   17.73000145  140.70700073    1.83000004    1.76999998
   17.73555565  140.70700073    1.83000004    1.76999998
   17.73972321  139.53199768    1.83000004    1.76999998
   17.74305534  137.21200562    1.83000004    1.76999998
   17.74638939  134.28399658    1.83000004    1.76999998
   17.74944496  132.23699951    1.83000004    1.76999998
   17.75277710  144.59399414    1.83000004    1.76999998
   17.75611115  139.68499756    1.83000004    1.76999998
   17.75944519  136.87300110    1.83000004    1.76999998
   17.76277733  144.85299683    1.83000004    1.76999998
   17.76583290  139.08599854    1.83000004    1.76999998
   17.76805496  141.28900146    1.83000004    1.76999998
   17.76972198  141.50000000    1.83000004    1.76999998
   17.77305603  140.90899658    1.83000004    1.76999998
   17.77833366  140.90899658    1.83000004    1.76999998
   17.78249931  136.85699463    1.83000004    1.76999998
   17.78583336  138.76699829    1.83000004    1.76999998
   17.78916550  141.58099365    1.83000004    1.76999998
   17.79249954  135.90299988    1.83000004    1.76999998
   17.79583359  140.31199646    1.83000004    1.76999998
   17.79888916  145.99200439    1.83000004    1.76999998
   17.80138779  140.87600708    1.83000004    1.76999998
   17.80277634  143.67100525    1.83000004    1.76999998
   17.80611038  145.86300659    1.83000004    1.76999998
   17.80916595  141.94799805    1.83000004    1.76999998
   17.81250000  140.57600403    1.83000004    1.76999998
   17.81583214  144.93600464    1.83000004    1.76999998
   17.82139015  144.93600464    1.83000004    1.76999998
   17.82555580  147.46600342    1.83000004    1.76999998
   17.82861137  141.30000305    1.83000004    1.76999998
   17.83194542  148.15100098    1.83000004    1.76999998
   17.83472252  146.39799500    1.83000004    1.76999998
   17.83583450  145.37800598    1.83000004    1.76999998
   17.83916664  139.03500366    1.83000004    1.76999998
   17.84222221  138.64300537    1.83000004    1.76999998
   17.84555626  133.97700500    1.83000004    1.76999998
   17.84889030  139.69799805    1.83000004    1.76999998
   17.85222244  147.41600037    1.83000004    1.76999998
   17.85555649  148.27400208    1.83000004    1.76999998
   17.85861206  144.04299927    1.83000004    1.76999998
   17.86416626  144.04299927    1.83000004    1.76999998
   17.86833382  140.90600586    1.83000004    1.76999998
   17.87166595  135.29299927    1.83000004    1.76999998
   17.87500000  138.91700745    1.83000004    1.76999998
   17.87805557  135.23800659    1.83000004    1.76999998
   17.88138962  146.81599426    1.83000004    1.76999998
   17.88472176  143.04800415    1.83000004    1.76999998
   17.88805580  139.01100159    1.83000004    1.76999998
   17.89111137  141.78599548    1.83000004    1.76999998
   17.89444351  138.06799316    1.83000004    1.76999998
   17.89777756  133.90600586    1.83000004    1.76999998
   17.90111160  140.90400696    1.83000004    1.76999998
   17.90166664  132.52900696    1.83000004    1.76999998
   17.90694427  132.52900696    1.83000004    1.76999998
   17.91110992  133.49800110    1.83000004    1.76999998
   17.91444397  139.18899536    1.83000004    1.76999998
   17.91777802  138.15400696    1.83000004    1.76999998
   17.92083359  135.46400452    1.83000004    1.76999998
   17.92416573  131.09899902    1.83000004    1.76999998
   17.92749977  139.91099548    1.83000004    1.76999998
   17.93083191  146.17599487    1.83000004    1.76999998
   17.93416595  142.05799866    1.83000004    1.76999998
   17.93499947  133.25900269    1.83000004    1.76999998
   17.93750000  143.27699280    1.83000004    1.76999998
   17.94083214  146.28399658    1.83000004    1.76999998
   17.94416618  143.42300415    1.83000004    1.76999998
   17.94972038  143.42300415    1.83000004    1.76999998
   17.95388985  140.80900574    1.83000004    1.76999998
   17.95722389  142.23199463    1.83000004    1.76999998
   17.96055603  147.34800720    1.83000004    1.76999998
   17.96389008  136.95100403    1.83000004    1.76999998
   17.96694565  137.58299255    1.83000004    1.76999998
   17.96833420  147.85400391    1.83000004    1.76999998
   17.97083473  142.64900208    1.83000004    1.76999998
   17.97416687  143.87800598    1.83000004    1.76999998
   17.97750092  146.90899658    1.83000004    1.76999998
   17.98055649  135.84599304    1.83000004    1.76999998
   17.98388863  146.40199280    1.83000004    1.76999998
   17.98722267  135.36599731    1.83000004    1.76999998
   17.99277878  135.36599731    1.83000004    1.76999998
   17.99694443  131.90299988    1.83000004    1.76999998
   18.00000000  142.70500183    1.83000004    1.76999998
   18.00166702  144.39399719    1.83000004    1.76999998
   18.00361061  149.06399536    1.83000004    1.76999998
   18.00694466  146.58900452    1.83000004    1.76999998
   18.01027870  145.00599670    1.83000004    1.76999998
   18.01361084  139.48199463    1.83000004    1.76999998
   18.01694489  136.53100586    1.83000004    1.76999998
   18.02000046  139.30400085    1.83000004    1.76999998
   18.02333260  138.35099792    1.83000004    1.76999998
   18.02666664  136.93299866    1.83000004    1.76999998
   18.03000069  132.88999939    1.83000004    1.76999998
   18.03555489  132.88999939    1.83000004    1.76999998
   18.03972244  137.64799500    1.83000004    1.76999998
   18.04305458  139.66600037    1.83000004    1.76999998
   18.04611015  138.00799561    1.83000004    1.76999998
   18.04944420  137.35699463    1.83000004    1.76999998
   18.05277634  142.16299438    1.83000004    1.76999998
   18.05611038  140.55799866    1.83000004    1.76999998
   18.05944443  131.79800415    1.83000004    1.76999998
   18.06250000  138.86399841    1.83000004    1.76999998
   18.06583214  140.51899719    1.83000004    1.76999998
   18.06833458  142.99600220    1.83000004    1.76999998
   18.06944466  148.08700562    1.83000004    1.76999998
   18.07277870  145.69999695    1.83000004    1.76999998
   18.07833481  145.69999695    1.83000004    1.76999998
   18.08250046  145.77900696    1.83000004    1.76999998
   18.08583450  141.60699463    1.83000004    1.76999998
   18.08916664  145.03799438    1.83000004    1.76999998
   18.09222221  154.64700317    1.83000004    1.76999998
   18.09555626  153.34599304    1.83000004    1.76999998
   18.09889030  153.93600464    1.83000004    1.76999998
   18.10166740  152.49800110    1.83000004    1.76999998
   18.10250092  156.37699890    1.83000004    1.76999998
   18.10583305  157.26899719    1.83000004    1.76999998
   18.10916710  148.21400452    1.83000004    1.76999998
   18.11250114  151.62699890    1.83000004    1.76999998
   18.11555672  147.88099670    1.83000004    1.76999998
   18.12111092  147.88099670    1.83000004    1.76999998
   18.12527847  148.98599243    1.83000004    1.76999998
   18.12861061  155.47300720    1.83000004    1.76999998
   18.13194466  147.78199768    1.83000004    1.76999998
   18.13500023  157.41299438    1.83000004    1.76999998
   18.13555527  146.64700317    1.83000004    1.76999998
   18.13916588  150.13400269    1.83000004    1.76999998
   18.14222145  150.57400513    1.83000004    1.76999998
   18.14555550  148.39999390    1.83000004    1.76999998
   18.14888954  153.63600159    1.83000004    1.76999998
   18.15222168  154.80400085    1.83000004    1.76999998
   18.15527725  153.25100708    1.83000004    1.76999998
   18.15861130  156.89100647    1.83000004    1.76999998
   18.16416550  156.89100647    1.83000004    1.76999998
   18.16833305  150.19400024    1.83000004    1.76999998
   18.16860962  148.71000671    1.83000004    1.76999998
   18.17194366  153.81799316    1.83000004    1.76999998
   18.17527771  150.00100708    1.83000004    1.76999998
   18.17860985  148.61900330    1.83000004    1.76999998
   18.18166542  151.41499329    1.83000004    1.76999998
   18.18499947  143.56700134    1.83000004    1.76999998
   18.18833160  156.50799561    1.83000004    1.76999998
   18.19166565  152.30900574    1.83000004    1.76999998
   18.19472122  151.05400085    1.83000004    1.76999998
   18.19805527  153.08999634    1.83000004    1.76999998
   18.20138931  148.63800049    1.83000004    1.76999998
   18.20194435  152.42700195    1.83000004    1.76999998
   18.20694542  152.42700195    1.83000004    1.76999998
   18.21111107  152.60800171    1.83000004    1.76999998
   18.21444511  153.32000732    1.83000004    1.76999998
   18.21777916  148.00999451    1.83000004    1.76999998
   18.22083473  155.71200562    1.83000004    1.76999998
   18.22416687  147.67100525    1.83000004    1.76999998
   18.22750092  153.63999939    1.83000004    1.76999998
   18.23083305  155.35499573    1.83000004    1.76999998
   18.23416710  154.08099365    1.83000004    1.76999998
   18.23527718  158.10299683    1.83000004    1.76999998
   18.23777771  159.69700623    1.83000004    1.76999998
   18.24083328  152.52799988    1.83000004    1.76999998
   18.24416733  153.05599976    1.83000004    1.76999998
   18.24972153  153.05599976    1.83000004    1.76999998
   18.25388908  142.40800476    1.83000004    1.76999998
   18.25722313  147.68200684    1.83000004    1.76999998
   18.26055527  150.47700500    1.83000004    1.76999998
   18.26361084  145.14900208    1.83000004    1.76999998
   18.26694489  157.87600708    1.83000004    1.76999998
   18.26861000  155.28999329    1.83000004    1.76999998
   18.27083397  145.52200317    1.83000004    1.76999998
   18.27416611  149.41299438    1.83000004    1.76999998
   18.27722168  151.54299927    1.83000004    1.76999998
   18.28055573  153.58999634    1.83000004    1.76999998
   18.28388786  144.42799377    1.83000004    1.76999998
   18.28722191  156.19799805    1.83000004    1.76999998
   18.29249954  156.19799805    1.83000004    1.76999998
   18.29694366  152.21400452    1.83000004    1.76999998
   18.29999924  159.66700745    1.83000004    1.76999998
   18.30194283  156.94599915    1.83000004    1.76999998
   18.30388832  149.90899658    1.83000004    1.76999998
   18.30722237  157.82099915    1.83000004    1.76999998
   18.31055450  155.93299866    1.83000004    1.76999998
   18.31361008  154.16200256    1.83000004    1.76999998
   18.31694603  149.64700317    1.83000004    1.76999998
   18.32027817  150.31900024    1.83000004    1.76999998
   18.32361221  151.39199829    1.83000004    1.76999998
   18.32666779  144.67900085    1.83000004    1.76999998
   18.33000183  148.83999634    1.83000004    1.76999998
   18.33555603  148.83999634    1.83000004    1.76999998
   18.33972359  151.89300537    1.83000004    1.76999998
   18.34277916  151.98899841    1.83000004    1.76999998
   18.34611130  150.31300354    1.83000004    1.76999998
   18.34944534  161.05000305    1.83000004    1.76999998
   18.35277748  156.48599243    1.83000004    1.76999998
   18.35611153  151.34899902    1.83000004    1.76999998
   18.35916710  151.56199646    1.83000004    1.76999998
   18.36250114  164.57899475    1.83000004    1.76999998
   18.36583328  156.17100525    1.83000004    1.76999998
   18.36861038  156.30700684    1.83000004    1.76999998
   18.36944389  162.33200073    1.83000004    1.76999998
   18.37277794  160.50599670    1.83000004    1.76999998
   18.37833405  160.50599670    1.83000004    1.76999998
   18.38249969  141.72900391    1.83000004    1.76999998
   18.38583374  154.95300293    1.83000004    1.76999998
   18.38888931  162.95799255    1.83000004    1.76999998
   18.39222145  159.56199646    1.83000004    1.76999998
   18.39555550  161.57000732    1.83000004    1.76999998
   18.39888954  164.52400208    1.83000004    1.76999998
   18.40194321  156.79600525    1.83000004    1.76999998
   18.40250015  161.94999695    1.83000004    1.76999998
   18.40583229  158.12800598    1.83000004    1.76999998
   18.40888786  158.69299316    1.83000004    1.76999998
   18.41222191  158.63299561    1.83000004    1.76999998
   18.41555595  156.03100586    1.83000004    1.76999998
   18.42111015  156.03100586    1.83000004    1.76999998
   18.42527771  156.36000061    1.83000004    1.76999998
   18.42860985  165.12300110    1.83000004    1.76999998
   18.43194389  157.90699768    1.83000004    1.76999998
   18.43499947  153.14500427    1.83000004    1.76999998
   18.43555450  160.38299561    1.83000004    1.76999998
   18.43888855  154.78199768    1.83000004    1.76999998
   18.44222069  153.79899597    1.83000004    1.76999998
   18.44555473  143.14300537    1.83000004    1.76999998
   18.44861031  160.41499329    1.83000004    1.76999998
   18.45194435  150.30200195    1.83000004    1.76999998
   18.45527840  158.46000671    1.83000004    1.76999998
   18.45861244  150.81900024    1.83000004    1.76999998
   18.46389008  150.81900024    1.83000004    1.76999998
   18.46805573  153.18400574    1.83000004    1.76999998
   18.46888924  167.51699829    1.83000004    1.76999998
   18.47166634  158.07200623    1.83000004    1.76999998
   18.47500038  150.61700439    1.83000004    1.76999998
   18.47833443  159.89300537    1.83000004    1.76999998
   18.48139000  150.11799622    1.83000004    1.76999998
   18.48472214  155.77600098    1.83000004    1.76999998
   18.48805618  149.96000671    1.83000004    1.76999998
   18.49138832  153.81199646    1.83000004    1.76999998
   18.49444389  145.67300415    1.83000004    1.76999998
   18.49777794  156.10499573    1.83000004    1.76999998
   18.50111198  161.09399414    1.83000004    1.76999998
   18.50222206  141.77200317    1.83000004    1.76999998
   18.50694466  141.77200317    1.83000004    1.76999998
   18.51111031  153.37699890    1.83000004    1.76999998
   18.51416588  157.48300171    1.83000004    1.76999998
   18.51749992  145.18800354    1.83000004    1.76999998
   18.52083397  152.15800476    1.83000004    1.76999998
   18.52416611  146.19000244    1.83000004    1.76999998
   18.52722168  147.97200012    1.83000004    1.76999998
   18.53055573  150.84300232    1.83000004    1.76999998
   18.53388786  146.93400574    1.83000004    1.76999998
   18.53555489  148.40400696    1.83000004    1.76999998
   18.53750038  135.69999695    1.83000004    1.76999998
   18.54083252  151.75100708    1.83000004    1.76999998
   18.54416656  156.02400208    1.83000004    1.76999998
   18.54972076  156.02400208    1.83000004    1.76999998
   18.55388832  149.03300476    1.83000004    1.76999998
   18.55722237  142.86000061    1.83000004    1.76999998
   18.56027794  152.40899658    1.83000004    1.76999998
   18.56361008  142.44500732    1.83000004    1.76999998
   18.56722260  142.41600037    1.83000004    1.76999998
   18.56888962  136.72599792    1.83000004    1.76999998
   18.57083511  139.26199341    1.83000004    1.76999998
   18.57416725  140.88900757    1.83000004    1.76999998
   18.57750130  146.24099731    1.83000004    1.76999998
   18.58055687  146.08399963    1.83000004    1.76999998
   18.58388901  138.84700012    1.83000004    1.76999998
   18.58722305  146.33799744    1.83000004    1.76999998
   18.59250069  146.33799744    1.83000004    1.76999998
   18.59666824  141.90400696    1.83000004    1.76999998
   18.60000038  135.97599792    1.83000004    1.76999998
   18.60222244  150.82600403    1.83000004    1.76999998
   18.60361099  140.96299744    1.83000004    1.76999998
   18.60694504  140.43400574    1.83000004    1.76999998
   18.61027908  142.05299377    1.83000004    1.76999998
   18.61333466  145.32699585    1.83000004    1.76999998
   18.61666679  142.75500488    1.83000004    1.76999998
   18.62000084  139.59800720    1.83000004    1.76999998
   18.62333298  150.80700684    1.83000004    1.76999998
   18.62638855  140.10400391    1.83000004    1.76999998
   18.62972260  147.86300659    1.83000004    1.76999998
   18.65194321  145.54299927    1.83000004    1.76999998
   18.65250015  138.42799377    1.83000004    1.76999998
   18.65305519  144.42599487    1.83000004    1.76999998
   18.65611076  145.36700439    1.83000004    1.76999998
   18.65944481  140.92799377    1.83000004    1.76999998
   18.66277695  147.58000183    1.83000004    1.76999998
   18.66611099  142.05799866    1.83000004    1.76999998
   18.66916656  143.86999512    1.83000004    1.76999998
   18.67249870  132.91600037    1.83000004    1.76999998
   18.67833328  132.91600037    1.83000004    1.76999998
   18.68249893  144.78599548    1.83000004    1.76999998
   18.68583298  144.44799805    1.83000004    1.76999998
   18.68638802  141.03300476    1.83000004    1.76999998
   18.68944359  140.88299561    1.83000004    1.76999998
   18.69249916  151.73199463    1.83000004    1.76999998
   18.69583321  140.19999695    1.83000004    1.76999998
   18.69916534  137.32499695    1.83000004    1.76999998
   18.70250130  139.63900757    1.83000004    1.76999998
   18.70555687  152.55099487    1.83000004    1.76999998
   18.70888901  140.98199463    1.83000004    1.76999998
   18.71222305  145.53399658    1.83000004    1.76999998
   18.71555710  146.94000244    1.83000004    1.76999998
   18.72111130  146.94000244    1.83000004    1.76999998
   18.72527885  151.00300598    1.83000004    1.76999998
   18.72861099  143.47999573    1.83000004    1.76999998
   18.73166656  151.67700195    1.83000004    1.76999998
   18.73500061  142.49699402    1.83000004    1.76999998
   18.73833275  142.49600220    1.83000004    1.76999998
   18.74166679  141.78300476    1.83000004    1.76999998
   18.74500084  145.13099670    1.83000004    1.76999998
   18.74833298  142.70399475    1.83000004    1.76999998
   18.75138855  145.98699951    1.83000004    1.76999998
   18.75305557  143.68200684    1.83000004    1.76999998
   18.75527763  148.77999878    1.83000004    1.76999998
   18.75833321  140.41900635    1.83000004    1.76999998
   18.76388931  140.41900635    1.83000004    1.76999998
   18.76805496  143.45199585    1.83000004    1.76999998
   18.77138901  142.83000183    1.83000004    1.76999998
   18.77472115  143.91499329    1.83000004    1.76999998
   18.77805519  137.41900635    1.83000004    1.76999998
   18.78111076  144.24499512    1.83000004    1.76999998
   18.78444481  137.52400208    1.83000004    1.76999998
   18.78638840  138.87699890    1.83000004    1.76999998
   18.78833199  141.24899292    1.83000004    1.76999998
   18.79138756  143.89900208    1.83000004    1.76999998
   18.79472160  139.91200256    1.83000004    1.76999998
   18.79805565  141.06500244    1.83000004    1.76999998
   18.80138779  142.00599670    1.83000004    1.76999998
   18.80666542  142.00599670    1.83000004    1.76999998
   18.81083298  143.59399414    1.83000004    1.76999998
   18.81416512  141.76800537    1.83000004    1.76999998
   18.81750107  143.40400696    1.83000004    1.76999998
   18.81972313  143.15299988    1.83000004    1.76999998
   18.82111168  144.47700500    1.83000004    1.76999998
   18.82444572  138.42999268    1.83000004    1.76999998
   18.82777786  140.30599976    1.83000004    1.76999998
   18.83111191  141.06900024    1.83000004    1.76999998
   18.83416748  134.60400391    1.83000004    1.76999998
   18.83750153  141.46800232    1.83000004    1.76999998
   18.84083366  145.24400330    1.83000004    1.76999998
   18.84416771  136.18299866    1.83000004    1.76999998
   18.84972191  136.18299866    1.83000004    1.76999998
   18.85388947  146.36099243    1.83000004    1.76999998
   18.85694504  134.83399963    1.83000004    1.76999998
   18.86027908  137.62500000    1.83000004    1.76999998
   18.86361122  143.04699707    1.83000004    1.76999998
   18.86694527  140.80700684    1.83000004    1.76999998
   18.87000084  145.11300659    1.83000004    1.76999998
   18.87333298  146.17900085    1.83000004    1.76999998
   18.87666702  139.41000366    1.83000004    1.76999998
   18.88000107  141.30799866    1.83000004    1.76999998
   18.88305473  147.42700195    1.83000004    1.76999998
   18.88638878  139.57400513    1.83000004    1.76999998
   18.88666725  142.00900269    1.83000004    1.76999998
   18.89249992  142.00900269    1.83000004    1.76999998
   18.89666748  150.13800049    1.83000004    1.76999998
   18.89999962  141.59800720    1.83000004    1.76999998
   18.90305519  154.49499512    1.83000004    1.76999998
   18.90666580  144.58000183    1.83000004    1.76999998
   18.90999985  145.85200500    1.83000004    1.76999998
   18.91305542  148.36399841    1.83000004    1.76999998
   18.91638756  143.63499451    1.83000004    1.76999998
   18.91972160  135.89399719    1.83000004    1.76999998
   18.92000008  145.98500061    1.83000004    1.76999998
   18.92333221  141.89300537    1.83000004    1.76999998
   18.92666626  144.69799805    1.83000004    1.76999998
   18.93000031  147.53300476    1.83000004    1.76999998
   18.93527603  147.53300476    1.83000004    1.76999998
   18.93944359  146.29699707    1.83000004    1.76999998
   18.94277763  151.66400146    1.83000004    1.76999998
   18.94610977  142.44200134    1.83000004    1.76999998
   18.94916534  142.92300415    1.83000004    1.76999998
   18.95250130  143.28199768    1.83000004    1.76999998
   18.95305634  149.03399658    1.83000004    1.76999998
   18.95611191  139.98199463    1.83000004    1.76999998
   18.95944595  139.65899658    1.83000004    1.76999998
   18.96277809  139.00599670    1.83000004    1.76999998
   18.96583366  149.33500671    1.83000004    1.76999998
   18.96916771  140.17599487    1.83000004    1.76999998
   18.97249985  141.86900330    1.83000004    1.76999998
   18.97805595  141.86900330    1.83000004    1.76999998
   18.98222351  138.92799377    1.83000004    1.76999998
   18.98555565  137.12899780    1.83000004    1.76999998
   18.98638916  147.00399780    1.83000004    1.76999998
   18.98916626  145.04699707    1.83000004    1.76999998
   18.99250031  145.47999573    1.83000004    1.76999998
   18.99583435  149.28100586    1.83000004    1.76999998
   18.99888992  145.95399475    1.83000004    1.76999998
   19.00222206  147.14999390    1.83000004    1.76999998
   19.00555611  149.98300171    1.83000004    1.76999998
   19.00888824  148.09300232    1.83000004    1.76999998
   19.01194382  145.16400146    1.83000004    1.76999998
   19.01527786  141.52999878    1.83000004    1.76999998
   19.02111053  141.52999878    1.83000004    1.76999998
   19.02527809  147.82499695    1.83000004    1.76999998
   19.02833366  153.53900146    1.83000004    1.76999998
   19.03166580  155.12800598    1.83000004    1.76999998
   19.03499985  149.08700562    1.83000004    1.76999998
   19.03833199  147.05599976    1.83000004    1.76999998
   19.04138756  150.47000122    1.83000004    1.76999998
   19.04472160  144.51499939    1.83000004    1.76999998
   19.04805565  146.57400513    1.83000004    1.76999998
   19.05138779  137.69299316    1.83000004    1.76999998
   19.05305481  142.78300476    1.83000004    1.76999998
   19.05499840  143.38299561    1.83000004    1.76999998
   19.05833244  139.30299377    1.83000004    1.76999998
   19.06388855  139.30299377    1.83000004    1.76999998
   19.06805611  148.55099487    1.83000004    1.76999998
   19.07139015  138.89700317    1.83000004    1.76999998
   19.07472229  144.83700562    1.83000004    1.76999998
   19.07777786  148.81700134    1.83000004    1.76999998
   19.08111191  153.75599670    1.83000004    1.76999998
   19.08444595  145.12399292    1.83000004    1.76999998
   19.08638954  145.41600037    1.83000004    1.76999998
   19.08805656  140.05200195    1.83000004    1.76999998
   19.09138870  143.45300293    1.83000004    1.76999998
   19.09444427  145.75199890    1.83000004    1.76999998
   19.09777832  141.50999451    1.83000004    1.76999998
   19.10111237  145.96899414    1.83000004    1.76999998
   19.10666656  145.96899414    1.83000004    1.76999998
   19.11083412  146.56799316    1.83000004    1.76999998
   19.11416626  150.81500244    1.83000004    1.76999998
   19.11750031  145.33000183    1.83000004    1.76999998
   19.11972237  147.04200745    1.83000004    1.76999998
   19.12111092  146.05000305    1.83000004    1.76999998
   19.12444496  147.38200378    1.83000004    1.76999998
   19.12777710  149.21400452    1.83000004    1.76999998
   19.13083267  141.95500183    1.83000004    1.76999998
   19.13416672  144.42599487    1.83000004    1.76999998
   19.13750076  148.41999817    1.83000004    1.76999998
   19.14083290  143.86799622    1.83000004    1.76999998
   19.14388847  145.87300110    1.83000004    1.76999998
   19.14944458  145.87300110    1.83000004    1.76999998
   19.15361023  144.62600708    1.83000004    1.76999998
   19.15694427  148.52499390    1.83000004    1.76999998
   19.16027832  145.39199829    1.83000004    1.76999998
   19.16361046  150.13299561    1.83000004    1.76999998
   19.16666603  133.29299927    1.83000004    1.76999998
   19.17000008  145.40199280    1.83000004    1.76999998
   19.17333221  139.31900024    1.83000004    1.76999998
   19.17666626  142.53900146    1.83000004    1.76999998
   19.17972183  141.94599915    1.83000004    1.76999998
   19.18305397  151.41299438    1.83000004    1.76999998
   19.18638802  149.41200256    1.83000004    1.76999998
   19.18694305  149.32800293    1.83000004    1.76999998
   19.19249916  149.32800293    1.83000004    1.76999998
   19.19666672  145.91299438    1.83000004    1.76999998
   19.19972038  145.54899597    1.83000004    1.76999998
   19.20305634  152.01600647    1.83000004    1.76999998
   19.20639038  149.96600342    1.83000004    1.76999998
   19.20972252  148.66200256    1.83000004    1.76999998
   19.21277809  140.80400085    1.83000004    1.76999998
   19.21611214  149.93499756    1.83000004    1.76999998
   19.21944427  151.58599854    1.83000004    1.76999998
   19.22027779  144.74499512    1.83000004    1.76999998
   19.22305679  152.26499939    1.83000004    1.76999998
   19.22611237  138.50500488    1.83000004    1.76999998
   19.22944450  145.29699707    1.83000004    1.76999998
   19.23527718  145.29699707    1.83000004    1.76999998
   19.23944473  142.88499451    1.83000004    1.76999998
   19.24277878  140.94000244    1.83000004    1.76999998
   19.24611092  142.21299744    1.83000004    1.76999998
   19.24916649  141.41900635    1.83000004    1.76999998
   19.25250053  142.00500488    1.83000004    1.76999998
   19.25361061  143.79800415    1.83000004    1.76999998
   19.25638962  138.39399719    1.83000004    1.76999998
   19.25944519  138.23899841    1.83000004    1.76999998
   19.26277733  147.35899353    1.83000004    1.76999998
   19.26611137  142.05700684    1.83000004    1.76999998
   19.26944351  142.77999878    1.83000004    1.76999998
   19.27249908  146.10699463    1.83000004    1.76999998
   19.27805519  146.10699463    1.83000004    1.76999998
   19.28222275  141.82499695    1.83000004    1.76999998
   19.28555489  143.78199768    1.83000004    1.76999998
   19.28694344  146.66999817    1.83000004    1.76999998
   19.28916550  142.99000549    1.83000004    1.76999998
   19.29222107  142.77000427    1.83000004    1.76999998
   19.29555511  138.67599487    1.83000004    1.76999998
   19.29888916  144.41999817    1.83000004    1.76999998
   19.30222130  139.39500427    1.83000004    1.76999998
   19.30555534  140.88800049    1.83000004    1.76999998
   19.30861092  142.63200378    1.83000004    1.76999998
   19.31194305  142.22599792    1.83000004    1.76999998
   19.31527710  145.97200012    1.83000004    1.76999998
   19.32083511  145.97200012    1.83000004    1.76999998
   19.32500076  138.13699341    1.83000004    1.76999998
   19.32833481  143.47399902    1.83000004    1.76999998
   19.33166695  147.00799561    1.83000004    1.76999998
   19.33500099  141.31900024    1.83000004    1.76999998
   19.33805656  143.35899353    1.83000004    1.76999998
   19.34166718  141.55599976    1.83000004    1.76999998
   19.34472275  149.15600586    1.83000004    1.76999998
   19.34805679  145.32800293    1.83000004    1.76999998
   19.35138893  146.85600281    1.83000004    1.76999998
   19.35361099  141.63499451    1.83000004    1.76999998
   19.35499954  145.31500244    1.83000004    1.76999998
   19.35805511  143.95100403    1.83000004    1.76999998
   19.36388969  143.95100403    1.83000004    1.76999998
   19.36805534  149.88200378    1.83000004    1.76999998
   19.37111092  147.86199951    1.83000004    1.76999998
   19.37444496  145.06799316    1.83000004    1.76999998
   19.37777710  147.67799377    1.83000004    1.76999998
   19.38111115  145.67799377    1.83000004    1.76999998
   19.38444519  141.97300720    1.83000004    1.76999998
   19.38694382  137.49800110    1.83000004    1.76999998
   19.38805580  144.67100525    1.83000004    1.76999998
   19.39138794  146.48500061    1.83000004    1.76999998
   19.39444351  142.24800110    1.83000004    1.76999998
   19.39777756  146.88999939    1.83000004    1.76999998
   19.40111160  145.86700439    1.83000004    1.76999998
   19.40666580  145.86700439    1.83000004    1.76999998
   19.41083336  138.29400635    1.83000004    1.76999998
   19.41416550  144.95700073    1.83000004    1.76999998
   19.41722107  146.39199829    1.83000004    1.76999998
   19.42027664  145.29800415    1.83000004    1.76999998
   19.42111015  144.18200684    1.83000004    1.76999998
   19.42444420  145.33299255    1.83000004    1.76999998
   19.42749977  137.66200256    1.83000004    1.76999998
   19.43083191  144.55400085    1.83000004    1.76999998
   19.43416595  151.89999390    1.83000004    1.76999998
   19.43750000  147.85000610    1.83000004    1.76999998
   19.44055557  156.69799805    1.83000004    1.76999998
   19.44388771  142.39900208    1.83000004    1.76999998
   19.44944382  142.39900208    1.83000004    1.76999998
   19.45361137  138.34100342    1.83000004    1.76999998
   19.45694542  141.17300415    1.83000004    1.76999998
   19.46027946  146.15100098    1.83000004    1.76999998
   19.46333504  146.90199280    1.83000004    1.76999998
   19.46666718  139.08500671    1.83000004    1.76999998
   19.47000122  138.14599609    1.83000004    1.76999998
   19.47333336  144.96400452    1.83000004    1.76999998
   19.47638893  138.77099609    1.83000004    1.76999998
   19.47972298  138.43499756    1.83000004    1.76999998
   19.48305511  140.01800537    1.83000004    1.76999998
   19.48638916  143.30200195    1.83000004    1.76999998
   19.48694420  137.57400513    1.83000004    1.76999998
   19.49250031  137.57400513    1.83000004    1.76999998
   19.49666786  138.28199768    1.83000004    1.76999998
   19.50000000  141.92599487    1.83000004    1.76999998
   19.50305557  147.30999756    1.83000004    1.76999998
   19.50638962  146.33099365    1.83000004    1.76999998
   19.50972176  146.48599243    1.83000004    1.76999998
   19.51305580  145.25999451    1.83000004    1.76999998
   19.51638794  143.72700500    1.83000004    1.76999998
   19.51972198  151.72300720    1.83000004    1.76999998
   19.52027702  145.34100342    1.83000004    1.76999998
   19.52333260  144.65499878    1.83000004    1.76999998
   19.52666664  147.13099670    1.83000004    1.76999998
   19.52972221  150.09800720    1.83000004    1.76999998
   19.53499985  150.09800720    1.83000004    1.76999998
   19.53944397  146.52000427    1.83000004    1.76999998
   19.54249954  140.62600708    1.83000004    1.76999998
   19.54583359  149.59700012    1.83000004    1.76999998
   19.54916573  153.05400085    1.83000004    1.76999998
   19.55249977  149.99499512    1.83000004    1.76999998
   19.55360985  154.47999573    1.83000004    1.76999998
   19.55611038  155.06599426    1.83000004    1.76999998
   19.55944443  150.89100647    1.83000004    1.76999998
   19.56250000  148.86700439    1.83000004    1.76999998
   19.56583214  149.90600586    1.83000004    1.76999998
   19.56916809  140.27000427    1.83000004    1.76999998
   19.57250023  149.12199402    1.83000004    1.76999998
   19.57805634  149.12199402    1.83000004    1.76999998
   19.58222389  153.22500610    1.83000004    1.76999998
   19.58555603  163.42599487    1.83000004    1.76999998
   19.58694458  153.00599670    1.83000004    1.76999998
   19.58916664  155.10200500    1.83000004    1.76999998
   19.59250069  147.79800415    1.83000004    1.76999998
   19.59583473  150.48699951    1.83000004    1.76999998
   19.59889030  156.86799622    1.83000004    1.76999998
   19.60222244  164.27099609    1.83000004    1.76999998
   19.60555649  170.14300537    1.83000004    1.76999998
   19.60888863  184.36399841    1.83000004    1.76999998
   19.61222267  186.22900391    1.83000004    1.76999998
   19.61527824  183.27000427    1.83000004    1.76999998
   19.62083435  183.27000427    1.83000004    1.76999998
   19.62500000  243.00700378    1.83000004    1.76999998
   19.62833405  180.76199341    1.83000004    1.76999998
   19.63166618  171.07699585    1.83000004    1.76999998
   19.63472176  182.44700623    1.83000004    1.76999998
   19.63805580   98.63719940    1.83000004    1.76999998
   19.64138794   -1.00000000    1.83000004    1.76999998
   19.64472198   -1.00000000    1.83000004    1.76999998
   19.64777756   -1.00000000    1.83000004    1.76999998
   19.65111160   -1.00000000    1.83000004    1.76999998
   19.67749977   -1.00000000    1.83000004    1.76999998
   19.68055534   -1.00000000    1.83000004    1.76999998
   19.68388748   -1.00000000    1.83000004    1.76999998
   19.68722153   -1.00000000    1.83000004    1.76999998
   19.69055557   -1.00000000    1.83000004    1.76999998
   19.69361115   -1.00000000    1.83000004    1.76999998
   19.69694328   -1.00000000    1.83000004    1.76999998
   19.70027924   -1.00000000    1.83000004    1.76999998
   19.70388985   -1.00000000    1.83000004    1.76999998
   19.70722389   -1.00000000    1.83000004    1.76999998
   19.71055603   -1.00000000    1.83000004    1.76999998
   19.72027779   -1.00000000    1.83000004    1.76999998
   19.72361183   -1.00000000    1.83000004    1.76999998
   19.72666740   -1.00000000    1.83000004    1.76999998
   19.73000145   -1.00000000    1.83000004    1.76999998
   19.73333359   -1.00000000    1.83000004    1.76999998
   19.73694420   -1.00000000    1.83000004    1.76999998
   19.74027824   -1.00000000    1.83000004    1.76999998
   19.74361229   -1.00000000    1.83000004    1.76999998
   19.74694443   -1.00000000    1.83000004    1.76999998
   19.75000000   -1.00000000    1.83000004    1.76999998
   19.75333405   -1.00000000    1.83000004    1.76999998
   19.76305580   -1.00000000    1.83000004    1.76999998
   19.76638794   -1.00000000    1.83000004    1.76999998
   19.77000046   -1.00000000    1.83000004    1.76999998
   19.77333260   -1.00000000    1.83000004    1.76999998
   19.77666664   -1.00000000    1.83000004    1.76999998
   19.78000069   -1.00000000    1.83000004    1.76999998
   19.78305435   -1.00000000    1.83000004    1.76999998
   19.78638840   -1.00000000    1.83000004    1.76999998
   19.78972244   -1.00000000    1.83000004    1.76999998
   19.79305458   -1.00000000    1.83000004    1.76999998
   19.79611015   -1.00000000    1.83000004    1.76999998
   19.80583191   -1.00000000    1.83000004    1.76999998
   19.80916595   -1.00000000    1.83000004    1.76999998
   19.81250000   -1.00000000    1.83000004    1.76999998
   19.81583214   -1.00000000    1.83000004    1.76999998
   19.81888962   -1.00000000    1.83000004    1.76999998
   19.82222366   -1.00000000    1.83000004    1.76999998
   19.82555580   -1.00000000    1.83000004    1.76999998
   19.82888985   -1.00000000    1.83000004    1.76999998
   19.83194542   -1.00000000    1.83000004    1.76999998
   19.83527756   -1.00000000    1.83000004    1.76999998
   19.83889008   -1.00000000    1.83000004    1.76999998
   19.84889030   -1.00000000    1.83000004    1.76999998
   19.85194397   -1.00000000    1.83000004    1.76999998
   19.85527802   -1.00000000    1.83000004    1.76999998
   19.85861206   -1.00000000    1.83000004    1.76999998
   19.86194420   -1.00000000    1.83000004    1.76999998
   19.86499977   -1.00000000    1.83000004    1.76999998
   19.86833382   -1.00000000    1.83000004    1.76999998
   19.87194443   -1.00000000    1.83000004    1.76999998
   19.87527847   -1.00000000    1.83000004    1.76999998
   19.87861061   -1.00000000    1.83000004    1.76999998
   19.88166618   -1.00000000    1.83000004    1.76999998
   19.89166641   -1.00000000    1.83000004    1.76999998
   19.89500046   -1.00000000    1.83000004    1.76999998
   19.89805603   -1.00000000    1.83000004    1.76999998
   19.90138817   -1.00000000    1.83000004    1.76999998
   19.90499878   -1.00000000    1.83000004    1.76999998
   19.90833282   -1.00000000    1.83000004    1.76999998
   19.91138840   -1.00000000    1.83000004    1.76999998
   19.91472244   -1.00000000    1.83000004    1.76999998
   19.91805458   -1.00000000    1.83000004    1.76999998
   19.92138863   -1.00000000    1.83000004    1.76999998
   19.92444420   -1.00000000    1.83000004    1.76999998
   19.93444443   -1.00000000    1.83000004    1.76999998
   19.93805504   -1.00000000    1.83000004    1.76999998
   19.94138718   -1.00000000    1.83000004    1.76999998
   19.94472122   -1.00000000    1.83000004    1.76999998
